"Time (s)","Acceleration x (m/s^2)","Acceleration y (m/s^2)","Acceleration z (m/s^2)"
3.884714300E-2,-5.656301379E-1,5.643732071E0,8.437167168E0
4.084969500E-2,-5.602431893E-1,5.648520470E0,8.432378769E0
4.285391400E-2,-5.506663918E-1,5.648520470E0,8.427590370E0
4.486026800E-2,-5.363011956E-1,5.643732071E0,8.412626266E0
4.686870600E-2,-5.410895944E-1,5.629366875E0,8.374319077E0
4.887927800E-2,-5.410895944E-1,5.605424881E0,8.321646690E0
5.089214300E-2,-5.315127969E-1,5.600636482E0,8.235455513E0
5.290703900E-2,-5.315127969E-1,5.586271286E0,8.182783127E0
5.492391400E-2,-5.315127969E-1,5.567117691E0,8.106168747E0
5.694229900E-2,-5.027823448E-1,5.576694489E0,8.048707962E0
5.896193500E-2,-4.788403511E-1,5.571906090E0,7.996035099E0
6.098245600E-2,-4.788403511E-1,5.581482887E0,7.948151112E0
6.300354900E-2,-4.405331016E-1,5.595848083E0,7.885901928E0
6.502479900E-2,-4.309563041E-1,5.600636482E0,7.828441143E0
6.704604900E-2,-4.213795066E-1,5.605424881E0,7.766191959E0
6.906729900E-2,-4.357447028E-1,5.591059685E0,7.699153900E0
7.106573700E-2,-4.405331016E-1,5.600636482E0,7.651269913E0
7.306469500E-2,-4.548983276E-1,5.605424881E0,7.636904716E0
7.506469500E-2,-4.501099288E-1,5.610213280E0,7.660846710E0
7.706615300E-2,-4.165911078E-1,5.552752495E0,7.833229542E0
7.906761200E-2,-3.878606856E-1,5.519233704E0,7.981669903E0
8.106907000E-2,-3.399766386E-1,5.476137638E0,7.991246700E0
8.307318500E-2,-3.256114423E-1,5.519233704E0,8.015189171E0
8.508016400E-2,-2.729389966E-1,5.605424881E0,8.015189171E0
8.709011200E-2,-1.580173075E-1,5.658097267E0,7.996035099E0
8.910302800E-2,-1.340752989E-1,5.705981255E0,7.905055523E0
9.111594500E-2,-1.628057212E-1,5.739500046E0,7.852383137E0
9.313006000E-2,-1.484405100E-1,5.725134850E0,7.775768757E0
9.514417400E-2,-1.244984865E-1,5.715558052E0,7.723096371E0
9.716089300E-2,-8.619125932E-2,5.672462463E0,7.718307495E0
9.918006000E-2,-9.576806426E-2,5.610213280E0,7.799710751E0
1.012012580E-1,-1.101332754E-1,5.538387299E0,7.938574314E0
1.032241740E-1,-1.053448766E-1,5.452195644E0,8.077438354E0
1.052481850E-1,-1.532289088E-1,5.413888454E0,8.173206329E0
1.072726120E-1,-1.484405100E-1,5.375581264E0,8.163629532E0
1.092954240E-1,-1.005564705E-1,5.380369663E0,8.019977570E0
1.113121430E-1,-8.619125932E-2,5.404311657E0,7.881113529E0
1.133247470E-1,-9.576806426E-2,5.433042049E0,7.857171535E0
1.153364140E-1,-7.661445439E-2,5.447407246E0,7.861959934E0
1.173438620E-1,-1.005564705E-1,5.461772442E0,7.818864346E0
1.193516740E-1,-1.197100878E-1,5.447407246E0,7.766191959E0
1.213599030E-1,-1.675941199E-1,5.433042049E0,7.732673168E0
1.233686010E-1,-2.298433632E-1,5.404311657E0,7.881113529E0
1.253778720E-1,-2.537853718E-1,5.385158062E0,7.933785915E0
1.273878200E-1,-2.873041928E-1,5.385158062E0,7.790133953E0
1.293984450E-1,-3.064578176E-1,5.409100056E0,7.656058311E0
1.314097990E-1,-3.256114423E-1,5.442618847E0,7.641693115E0
1.334219350E-1,-3.399766386E-1,5.480926037E0,7.646481514E0
1.354350600E-1,-3.687070608E-1,5.504868031E0,7.598597527E0
1.374488620E-1,-3.782838583E-1,5.504868031E0,7.502829552E0
1.394633930E-1,-3.782838583E-1,5.528810501E0,7.344812393E0
1.414783410E-1,-3.447650373E-1,5.519233704E0,7.181407928E0
1.434938100E-1,-3.112462163E-1,5.504868031E0,7.028179169E0
1.455095910E-1,-2.585737705E-1,5.509656429E0,6.908469200E0
1.475253720E-1,-1.723825186E-1,5.495291233E0,6.817489147E0
1.495412580E-1,-1.005564705E-1,5.485714436E0,6.745663166E0
1.515499030E-1,-2.394201607E-2,5.495291233E0,6.688202381E0
1.535588100E-1,4.788403213E-2,5.504868031E0,6.664260387E0
1.555682890E-1,1.101332754E-1,5.514444828E0,6.654683590E0
1.575781330E-1,1.771709323E-1,5.514444828E0,6.678625584E0
1.595886010E-1,2.106897533E-1,5.509656429E0,6.731297970E0
1.615995390E-1,2.059013397E-1,5.514444828E0,6.807912350E0
1.636111530E-1,2.106897533E-1,5.485714436E0,6.870162010E0
1.656233930E-1,1.915361285E-1,5.476137638E0,6.946776390E0
1.676361010E-1,1.867477298E-1,5.447407246E0,7.028179169E0
1.696494350E-1,1.244984865E-1,5.413888454E0,7.076063156E0
1.716631330E-1,1.149216816E-1,5.380369663E0,7.090428352E0
1.736772990E-1,6.703764945E-2,5.366004467E0,7.104793549E0
1.756917780E-1,1.915361360E-2,5.346850872E0,7.138312340E0
1.777062580E-1,-4.788403213E-2,5.327697277E0,7.224503517E0
1.797208930E-1,-9.576806426E-2,5.294178486E0,7.359177589E0
1.817325080E-1,-1.340752989E-1,5.217564106E0,7.488464355E0
1.837443310E-1,-1.580173075E-1,5.207987309E0,7.656058311E0
1.857561530E-1,-1.340752989E-1,5.217564106E0,7.699153900E0
1.877679760E-1,-1.149216816E-1,5.164891720E0,7.608174324E0
1.897800080E-1,-1.580173075E-1,5.121796131E0,7.569867134E0
1.917920390E-1,-1.628057212E-1,5.083488941E0,7.656058311E0
1.938041220E-1,-1.771709323E-1,5.064335346E0,7.794922352E0
1.958164140E-1,-2.298433632E-1,4.991910458E0,7.986458302E0
1.978287060E-1,-2.298433632E-1,4.896142483E0,8.139687538E0
1.998412060E-1,-2.346317619E-1,4.786009312E0,8.254609108E0
2.018537060E-1,-2.346317619E-1,4.718971729E0,8.331223488E0
2.038663620E-1,-2.825157940E-1,4.584896088E0,8.398261070E0
2.058791220E-1,-3.878606856E-1,4.407725334E0,8.456320763E0
2.078900080E-1,-6.374561787E-1,3.928286552E0,8.499416351E0
2.099011010E-1,-1.068412542E0,3.104681015E0,8.595184326E0
2.119122470E-1,-7.811083198E-1,3.712808371E0,8.115745544E0
2.139237060E-1,-5.656301379E-1,4.125209332E0,7.976881504E0
2.159354760E-1,-4.453215301E-1,4.489128113E0,7.962516308E0
2.179474030E-1,-2.968810201E-1,4.853046894E0,8.010400772E0
2.199596430E-1,-1.388636976E-1,5.207987309E0,8.091803551E0
2.219719870E-1,-2.873042040E-2,5.452195644E0,8.149264336E0
2.239845910E-1,8.619125932E-2,5.629366875E0,8.211513519E0
2.259974560E-1,2.633621991E-1,5.811326027E0,8.106168747E0
2.280103720E-1,3.591302633E-1,5.964554787E0,7.928997517E0
2.300234970E-1,4.261679053E-1,6.050746441E0,7.847594738E0
2.320354240E-1,4.453215301E-1,6.093842030E0,7.833229542E0
2.340475600E-1,4.309563041E-1,6.103418827E0,7.876325130E0
2.360598510E-1,3.591302633E-1,6.060323238E0,7.876325130E0
2.380721430E-1,2.873041928E-1,5.964554787E0,7.809287548E0
2.400845910E-1,2.154781520E-1,5.816114426E0,7.838017941E0
2.420962580E-1,8.619125932E-2,5.643732071E0,7.833229542E0
2.441081330E-1,-3.351882473E-2,5.485714436E0,7.833229542E0
2.461200600E-1,-1.675941199E-1,5.294178486E0,7.847594738E0
2.481320390E-1,-3.160346150E-1,5.112219334E0,7.842806339E0
2.501442260E-1,-4.118026793E-1,4.958391666E0,7.914632320E0
2.521564140E-1,-5.219359994E-1,4.795586109E0,7.938574314E0
2.541688100E-1,-5.363011956E-1,4.675876141E0,7.905055523E0
2.561812580E-1,-5.895721912E-1,4.560954094E0,7.914632320E0
2.581937060E-1,-6.039373875E-1,4.469974518E0,7.938574314E0
2.602063100E-1,-6.183025837E-1,4.388571739E0,7.996035099E0
2.622178200E-1,-6.566098332E-1,4.311957359E0,8.091803551E0
2.642295390E-1,-6.949170232E-1,4.254496574E0,8.110957146E0
2.662412580E-1,-6.853402257E-1,4.216189384E0,8.163629532E0
2.682532370E-1,-6.949170232E-1,4.187458992E0,8.221090317E0
2.702654240E-1,-7.044938207E-1,4.177882195E0,8.288127899E0
2.722778720E-1,-6.566098332E-1,4.192247391E0,8.379107475E0
2.742904760E-1,-6.183025837E-1,4.230554581E0,8.528146744E0
2.763030810E-1,-5.554547906E-1,4.235342979E0,8.643068314E0
2.783158410E-1,-4.788403511E-1,4.268861771E0,8.681375504E0
2.803287060E-1,-4.070142806E-1,4.326322556E0,8.762778282E0
2.823393830E-1,-3.495534360E-1,4.331110954E0,8.781931877E0
2.843500600E-1,-3.208230138E-1,4.335899353E0,8.868123055E0
2.863608410E-1,-3.112462163E-1,4.345476151E0,8.930372238E0
2.883717780E-1,-3.016694188E-1,4.374206543E0,9.030928612E0
2.903828720E-1,-2.920926213E-1,4.364629745E0,9.121908188E0
2.923942260E-1,-2.585737705E-1,4.359841347E0,9.198522568E0
2.944061010E-1,-2.202665508E-1,4.369418144E0,9.299078941E0
2.964181850E-1,-1.628057212E-1,4.364629745E0,9.399636269E0
2.984306850E-1,-1.197100878E-1,4.345476151E0,9.404424667E0
3.004435490E-1,-9.097966552E-2,4.331110954E0,9.370905876E0
3.024567780E-1,-9.097966552E-2,4.326322556E0,9.356540680E0
3.044700600E-1,-9.097966552E-2,4.302380562E0,9.433155060E0
3.064833930E-1,-1.340752989E-1,4.273650169E0,9.519346237E0
3.084969350E-1,-1.628057212E-1,4.283226967E0,9.543288231E0
3.105105810E-1,-1.675941199E-1,4.230554581E0,9.553462982E0
3.125243310E-1,-8.619125932E-2,4.072536945E0,9.749788284E0
3.145380810E-1,-7.661445439E-2,4.005499363E0,9.936535835E0
3.165457370E-1,-1.915361360E-2,4.062960148E0,9.677961349E0
3.185537580E-1,5.267243832E-2,4.048594952E0,9.279925346E0
3.205622470E-1,5.746084079E-2,4.067748547E0,8.901641846E0
3.225713620E-1,-2.873042040E-2,4.096478939E0,8.767566681E0
3.245812060E-1,-1.915361285E-1,4.077325344E0,8.772355080E0
3.265916220E-1,-3.687070608E-1,4.096478939E0,9.026140213E0
3.286028720E-1,-4.979939461E-1,4.096478939E0,9.380482674E0
3.306149560E-1,-5.602431893E-1,4.129997730E0,9.658807755E0
3.326278720E-1,-5.602431893E-1,4.158728123E0,9.840767860E0
3.346415700E-1,-5.123591423E-1,4.149151325E0,9.869498253E0
3.366557370E-1,-4.644751251E-1,4.158728123E0,9.869498253E0
3.386704760E-1,-4.548983276E-1,4.129997730E0,9.792883873E0
3.406856330E-1,-4.644751251E-1,4.077325344E0,9.706692696E0
3.427011010E-1,-4.740519226E-1,4.000710964E0,9.649230957E0
3.447167260E-1,-5.315127969E-1,3.918709517E0,9.601346970E0
3.467277160E-1,-5.943605900E-1,3.870825529E0,9.558251381E0
3.487389660E-1,-6.326677799E-1,3.794211149E0,9.418789864E0
3.507504760E-1,-6.709750295E-1,3.765480757E0,9.284713745E0
3.527622990E-1,-7.284358740E-1,3.660135746E0,9.193734169E0
3.547741740E-1,-7.811083198E-1,3.526060581E0,9.069235802E0
3.567861530E-1,-8.481459618E-1,3.425503969E0,9.011775017E0
3.587982370E-1,-9.199720025E-1,3.339312792E0,9.059659004E0
3.608105810E-1,-9.822212458E-1,3.224391222E0,9.064447403E0
3.628232370E-1,-1.073200941E0,3.248333216E0,9.169792175E0
3.648361010E-1,-1.140238523E0,3.176506996E0,9.279925346E0
3.668489660E-1,-1.159392118E0,3.166930199E0,9.313444138E0
3.688619870E-1,-1.159392118E0,3.138199806E0,9.308655739E0
3.708751120E-1,-1.135450125E0,3.205237627E0,9.284713745E0
3.728883410E-1,-1.077989340E0,3.286640406E0,9.275136948E0
3.749015700E-1,-1.015740037E0,3.368043184E0,9.279925346E0
3.769102160E-1,-9.582792521E-1,3.463811398E0,9.203310966E0
3.789191740E-1,-8.960300088E-1,3.583521366E0,9.179368973E0
3.809285490E-1,-8.481459618E-1,3.712808371E0,9.174580574E0
3.829384450E-1,-7.858967185E-1,3.822941542E0,9.136273384E0
3.849489140E-1,-7.188590765E-1,3.909132719E0,9.141061783E0
3.869598510E-1,-6.087257862E-1,3.943250179E0,9.054870605E0
3.889714660E-1,-5.458779931E-1,4.005499363E0,8.992621422E0
3.909837060E-1,-4.884171486E-1,4.034229755E0,8.911218643E0
3.929966220E-1,-4.405331016E-1,4.072536945E0,8.863334656E0
3.950101120E-1,-3.926490843E-1,4.058171749E0,8.781931877E0
3.970239140E-1,-3.303998411E-1,4.043806553E0,8.580819130E0
3.990381330E-1,-3.208230138E-1,4.000710964E0,8.499416351E0
4.010526640E-1,-3.160346150E-1,3.904344320E0,8.494627953E0
4.030674030E-1,-3.639186621E-1,3.784634352E0,8.456320763E0
4.050822470E-1,-4.405331016E-1,3.669712543E0,8.532935143E0
4.070928200E-1,-4.644751251E-1,3.588309765E0,8.576030731E0
4.091036010E-1,-4.692635238E-1,3.502118587E0,8.552088737E0
4.111146430E-1,-4.692635238E-1,3.478176594E0,8.528146744E0
4.131259970E-1,-4.309563041E-1,3.449446201E0,8.528146744E0
4.151376640E-1,-4.453215301E-1,3.396773577E0,8.547300339E0
4.171494870E-1,-4.453215301E-1,3.372831583E0,8.638279915E0
4.191616740E-1,-4.548983276E-1,3.348889589E0,8.729259491E0
4.211741740E-1,-4.165911078E-1,3.363254786E0,8.810662270E0
4.231869870E-1,-3.926490843E-1,3.348889589E0,8.872911453E0
4.251998510E-1,-3.734954596E-1,3.334524393E0,8.882488251E0
4.272127680E-1,-3.256114423E-1,3.372831583E0,8.954314232E0
4.292258930E-1,-3.064578176E-1,3.391985178E0,9.045293808E0
4.312391220E-1,-2.394201756E-1,3.420715570E0,9.054870605E0
4.332524560E-1,-1.532289088E-1,3.425503969E0,9.021351814E0
4.352658410E-1,-9.097966552E-2,3.415927172E0,8.992621422E0
4.372750080E-1,-8.619125932E-2,3.420715570E0,9.069235802E0
4.392844870E-1,-8.140286058E-2,3.401561975E0,9.179368973E0
4.412943310E-1,-7.661445439E-2,3.368043184E0,9.303867340E0
4.433046430E-1,-6.703764945E-2,3.368043184E0,9.418789864E0
4.453154760E-1,-4.309562966E-2,3.358466387E0,9.524134636E0
4.473266740E-1,-4.309562966E-2,3.310582399E0,9.582193375E0
4.493384450E-1,-1.053448766E-1,3.329735994E0,9.677961349E0
4.513507370E-1,-1.819593310E-1,3.253121614E0,9.740211487E0
4.533633410E-1,-2.633621991E-1,3.233968019E0,9.725846291E0
4.553762060E-1,-3.303998411E-1,3.214814425E0,9.740211487E0
4.573893310E-1,-3.830722570E-1,3.176506996E0,9.744999886E0
4.594026640E-1,-4.022258818E-1,3.128623009E0,9.706692696E0
4.614161530E-1,-4.213795066E-1,3.109469414E0,9.668384552E0
4.634299560E-1,-4.261679053E-1,3.066373825E0,9.625288963E0
4.654439660E-1,-4.261679053E-1,3.023278236E0,9.606135368E0
4.674579760E-1,-4.022258818E-1,2.965817451E0,9.586981773E0
4.694720390E-1,-4.165911078E-1,2.956240654E0,9.630077362E0
4.714816740E-1,-3.926490843E-1,2.913144827E0,9.630077362E0
4.734915700E-1,-4.070142806E-1,2.860472441E0,9.586981773E0
4.755017780E-1,-4.118026793E-1,2.822165251E0,9.572616577E0
4.775121950E-1,-4.261679053E-1,2.773682594E0,9.586981773E0
4.795230810E-1,-4.644751251E-1,2.740163803E0,9.625288963E0
4.815342260E-1,-4.644751251E-1,2.677914619E0,9.630077362E0
4.835458930E-1,-4.453215301E-1,2.610877037E0,9.577404976E0
4.855580810E-1,-4.309563041E-1,2.567781210E0,9.572616577E0
4.875706330E-1,-3.878606856E-1,2.505532026E0,9.558251381E0
4.895836530E-1,-3.734954596E-1,2.448071241E0,9.538499832E0
4.915968830E-1,-3.399766386E-1,2.390610456E0,9.543288231E0
4.936104760E-1,-3.112462163E-1,2.313995838E0,9.514557838E0
4.956243830E-1,-2.729389966E-1,2.251746655E0,9.509769440E0
4.976383410E-1,-2.489969730E-1,2.184709072E0,9.524134636E0
4.996524030E-1,-2.059013397E-1,2.122459888E0,9.543288231E0
5.016637060E-1,-1.628057212E-1,2.041056871E0,9.500192642E0
5.036752680E-1,-1.244984865E-1,1.988384485E0,9.504981041E0
5.056870390E-1,-7.182604820E-2,1.940500498E0,9.577404976E0
5.076988620E-1,-4.788403399E-3,1.906981707E0,9.644442558E0
5.097108930E-1,6.703764945E-2,1.883039594E0,9.725846291E0
5.117229240E-1,1.340752989E-1,1.854309201E0,9.744999886E0
5.137351640E-1,1.963245422E-1,1.859097600E0,9.797672272E0
5.157475600E-1,2.202665508E-1,1.873462796E0,9.874286652E0
5.177599560E-1,2.825157940E-1,1.863885999E0,9.883863449E0
5.197725080E-1,3.208230138E-1,1.892616391E0,9.898228645E0
5.217850600E-1,3.447650373E-1,1.892616391E0,9.888651848E0
5.237977680E-1,3.782838583E-1,1.906981707E0,9.826402664E0
5.258106850E-1,3.830722570E-1,1.935712099E0,9.831191063E0
5.278230280E-1,3.734954596E-1,1.945288897E0,9.855133057E0
5.298354760E-1,3.543418646E-1,1.940500498E0,9.845556259E0
5.318467780E-1,3.687070608E-1,1.954865694E0,9.783307076E0
5.338582370E-1,3.256114423E-1,1.978807688E0,9.764153481E0
5.358698510E-1,2.825157940E-1,1.954865694E0,9.735423088E0
5.378815180E-1,2.394201756E-1,1.964442492E0,9.697115898E0
5.398933930E-1,2.011129409E-1,1.964442492E0,9.692327499E0
5.419053200E-1,1.436520964E-1,1.921346903E0,9.711481094E0
5.439174560E-1,1.244984865E-1,1.935712099E0,9.749788284E0
5.459297990E-1,1.340752989E-1,1.921346903E0,9.768941879E0
5.479421950E-1,1.053448766E-1,1.935712099E0,9.754576683E0
5.499547470E-1,9.097966552E-2,1.911770105E0,9.658807755E0
5.519672470E-1,4.788403213E-2,1.897404790E0,9.634865761E0
5.539799030E-1,-9.576806799E-3,1.873462796E0,9.649230957E0
5.559926640E-1,-6.224924326E-2,1.849520802E0,9.663596153E0
5.580055280E-1,-9.097966552E-2,1.806425214E0,9.687539101E0
5.600184450E-1,-1.005564705E-1,1.787271619E0,9.687539101E0
5.620278200E-1,-1.388636976E-1,1.777694821E0,9.682749748E0
5.640374560E-1,-1.723825186E-1,1.748964310E0,9.725846291E0
5.660474560E-1,-2.106897533E-1,1.729810715E0,9.721057892E0
5.680577160E-1,-2.202665508E-1,1.676539779E0,9.740211487E0
5.700684450E-1,-2.633621991E-1,1.657386184E0,9.744999886E0
5.720795390E-1,-2.920926213E-1,1.638232470E0,9.773730278E0
5.740912060E-1,-3.064578176E-1,1.595136881E0,9.754576683E0
5.761032370E-1,-2.968810201E-1,1.585560083E0,9.778518677E0
5.781159450E-1,-2.681505978E-1,1.547252893E0,9.783307076E0
5.801291740E-1,-2.394201756E-1,1.532887697E0,9.783307076E0
5.821426640E-1,-2.394201756E-1,1.513733983E0,9.812037468E0
5.841565700E-1,-2.250549644E-1,1.494580388E0,9.835979462E0
5.861705810E-1,-2.106897533E-1,1.499368787E0,9.835979462E0
5.881846430E-1,-2.154781520E-1,1.441908002E0,9.869498253E0
5.901988100E-1,-2.011129409E-1,1.437119603E0,9.893440247E0
5.922130280E-1,-1.771709323E-1,1.417966008E0,9.907805443E0
5.942269350E-1,-1.628057212E-1,1.379658699E0,9.912593842E0
5.962340700E-1,-1.197100878E-1,1.365293503E0,9.922170639E0
5.982416220E-1,-8.619125932E-2,1.360505104E0,9.936535835E0
6.002496950E-1,-6.703764945E-2,1.326986313E0,9.970054626E0
6.022582890E-1,-4.788403213E-2,1.298255920E0,9.979631424E0
6.042677160E-1,-4.309562966E-2,1.283890605E0,9.970054626E0
6.062779760E-1,-2.873042040E-2,1.259948611E0,9.936535835E0
6.082891740E-1,-9.576806799E-3,1.226429820E0,9.898228645E0
6.103013100E-1,9.576806799E-3,1.183334231E0,9.926959038E0
6.123143830E-1,3.351882473E-2,1.159392118E0,9.893440247E0
6.143280810E-1,2.873042040E-2,1.130661726E0,9.874286652E0
6.163422990E-1,4.788403213E-2,1.111508131E0,9.879075050E0
6.183570910E-1,5.267243832E-2,1.130661726E0,9.879075050E0
6.203722470E-1,7.661445439E-2,1.111508131E0,9.835979462E0
6.223876120E-1,7.661445439E-2,1.097142935E0,9.792883873E0
6.244029760E-1,1.053448766E-1,1.077989340E0,9.783307076E0
6.264176640E-1,1.149216816E-1,1.068412542E0,9.754576683E0
6.284324030E-1,1.484405100E-1,1.049258947E0,9.759365082E0
6.304453720E-1,1.436520964E-1,1.030105233E0,9.778518677E0
6.324583410E-1,1.388636976E-1,1.020528436E0,9.797672272E0
6.344696950E-1,1.915361285E-1,1.025316834E0,9.735423088E0
6.364778200E-1,1.963245422E-1,1.015740037E0,9.682749748E0
6.384863100E-1,1.771709323E-1,1.030105233E0,9.639654160E0
6.404952160E-1,1.723825186E-1,9.965864420E-1,9.610923767E0
6.425044870E-1,1.628057212E-1,9.870096445E-1,9.572616577E0
6.445143830E-1,1.484405100E-1,1.001374841E0,9.558251381E0
6.465248510E-1,1.388636976E-1,9.582792521E-1,9.572616577E0
6.485361010E-1,1.292868853E-1,9.630676508E-1,9.553462982E0
6.505481330E-1,1.436520964E-1,9.726444483E-1,9.538499832E0
6.525608930E-1,1.723825186E-1,9.870096445E-1,9.490615845E0
6.545743310E-1,1.915361285E-1,9.870096445E-1,9.452308655E0
6.565882370E-1,1.867477298E-1,1.001374841E0,9.509769440E0
6.586026640E-1,1.580173075E-1,9.965864420E-1,9.538499832E0
6.606175080E-1,1.723825186E-1,9.726444483E-1,9.524134636E0
6.626326640E-1,1.723825186E-1,9.726444483E-1,9.490615845E0
6.646479760E-1,2.059013397E-1,9.534908533E-1,9.428366661E0
6.666596950E-1,2.154781520E-1,9.247604012E-1,9.409213066E0
6.686716220E-1,2.202665508E-1,9.151836038E-1,9.418789864E0
6.706837580E-1,2.298433632E-1,9.151836038E-1,9.452308655E0
6.726958410E-1,2.202665508E-1,8.912416101E-1,9.428366661E0
6.747080810E-1,2.059013397E-1,8.960300088E-1,9.370905876E0
6.767200080E-1,1.963245422E-1,9.008184075E-1,9.361329079E0
6.787321430E-1,1.771709323E-1,8.768763542E-1,9.332598686E0
6.807444350E-1,1.771709323E-1,8.816647530E-1,9.313444138E0
6.827569350E-1,1.819593310E-1,8.816647530E-1,9.308655739E0
6.847695910E-1,1.723825186E-1,9.056068063E-1,9.299078941E0
6.867806850E-1,2.250549644E-1,9.295488000E-1,9.346963882E0
6.887920390E-1,2.346317619E-1,9.343371987E-1,9.394847870E0
6.908034450E-1,2.633621991E-1,9.487023950E-1,9.423578262E0
6.928151120E-1,2.729389966E-1,9.726444483E-1,9.414001465E0
6.948270390E-1,2.681505978E-1,9.822212458E-1,9.394847870E0
6.968390700E-1,2.873041928E-1,9.822212458E-1,9.394847870E0
6.988514140E-1,2.585737705E-1,9.917980433E-1,9.399636269E0
7.008640180E-1,2.729389966E-1,9.822212458E-1,9.404424667E0
7.028768830E-1,2.633621991E-1,9.822212458E-1,9.399636269E0
7.048899030E-1,2.729389966E-1,9.774328470E-1,9.442731857E0
7.069029240E-1,3.112462163E-1,9.678560495E-1,9.490615845E0
7.089161010E-1,3.208230138E-1,9.343371987E-1,9.538499832E0
7.109293310E-1,3.256114423E-1,9.247604012E-1,9.606135368E0
7.129426120E-1,3.160346150E-1,9.008184075E-1,9.673172951E0
7.149554760E-1,3.208230138E-1,8.816647530E-1,9.701904297E0
7.169636010E-1,3.303998411E-1,8.672995567E-1,9.740211487E0
7.189720390E-1,3.351882398E-1,8.529343605E-1,9.768941879E0
7.209808930E-1,3.543418646E-1,8.289923668E-1,9.792883873E0
7.229903720E-1,3.734954596E-1,8.481459618E-1,9.840767860E0
7.250004760E-1,3.974374831E-1,8.337807655E-1,9.859921455E0
7.270111010E-1,4.070142806E-1,8.385691643E-1,9.907805443E0
7.290225080E-1,4.357447028E-1,8.577227592E-1,9.984419823E0
7.310346430E-1,4.788403511E-1,8.672995567E-1,1.004188061E1
7.330475600E-1,4.979939461E-1,8.720879555E-1,1.010891819E1
7.350611010E-1,5.267243981E-1,8.720879555E-1,1.016637897E1
7.370750600E-1,5.267243981E-1,8.912416101E-1,1.022383976E1
7.390895390E-1,5.315127969E-1,8.960300088E-1,1.026214695E1
7.411043830E-1,5.171475410E-1,8.912416101E-1,1.031960773E1
7.431194350E-1,5.123591423E-1,8.768763542E-1,1.036270332E1
7.451345910E-1,4.932055473E-1,8.816647530E-1,1.036749172E1
7.471459970E-1,4.596867263E-1,8.960300088E-1,1.034833813E1
7.491576120E-1,4.213795066E-1,8.960300088E-1,1.029566574E1
7.511694350E-1,3.926490843E-1,9.199720025E-1,1.024299335E1
7.531814660E-1,3.687070608E-1,9.056068063E-1,1.021426296E1
7.551936530E-1,3.256114423E-1,8.912416101E-1,1.019989777E1
7.572058410E-1,2.968810201E-1,8.577227592E-1,1.013764858E1
7.592182370E-1,2.346317619E-1,8.433575630E-1,1.009455299E1
7.612307890E-1,2.059013397E-1,8.289923668E-1,1.006103420E1
7.632435490E-1,1.675941199E-1,8.289923668E-1,1.003709221E1
7.652564140E-1,1.292868853E-1,8.098387122E-1,1.002272701E1
7.672673510E-1,1.197100878E-1,7.763199210E-1,1.004666901E1
7.692784970E-1,7.661445439E-2,7.858967185E-1,1.002272701E1
7.712898510E-1,4.309562966E-2,7.906851172E-1,1.007061100E1
7.733014660E-1,9.576806799E-3,8.002619147E-1,1.016159058E1
7.753133410E-1,-4.788403399E-3,8.337807655E-1,1.019989777E1
7.773253200E-1,-4.788403399E-3,8.289923668E-1,1.023820496E1
7.793375600E-1,-1.915361360E-2,8.529343605E-1,1.025735855E1
7.813500600E-1,-1.436521020E-2,8.816647530E-1,1.028130054E1
7.833628200E-1,4.788403399E-3,9.103952050E-1,1.026693535E1
7.853757890E-1,0.000000000E0,9.199720025E-1,1.026693535E1
7.873885490E-1,2.394201607E-2,9.056068063E-1,1.021905136E1
7.894001120E-1,4.788403399E-3,9.008184075E-1,1.016159058E1
7.914116740E-1,0.000000000E0,8.720879555E-1,1.009934139E1
7.934234970E-1,0.000000000E0,8.625111580E-1,1.003230381E1
7.954355810E-1,9.576806799E-3,8.385691643E-1,9.970054626E0
7.974477160E-1,2.873042040E-2,7.906851172E-1,9.960477829E0
7.994600600E-1,3.351882473E-2,7.858967185E-1,9.936535835E0
8.014724030E-1,4.788403213E-2,7.811083198E-1,9.922170639E0
8.034849560E-1,4.309562966E-2,7.619546652E-1,9.888651848E0
8.054977160E-1,4.788403213E-2,7.667431235E-1,9.845556259E0
8.075104760E-1,4.309562966E-2,7.763199210E-1,9.816825867E0
8.095233410E-1,3.830722719E-2,7.858967185E-1,9.749788284E0
8.115341220E-1,3.830722719E-2,7.906851172E-1,9.721057892E0
8.135451640E-1,3.351882473E-2,8.194155097E-1,9.649230957E0
8.155564660E-1,4.788403213E-2,8.337807655E-1,9.596558571E0
8.175679240E-1,6.224924326E-2,8.433575630E-1,9.572616577E0
8.195796950E-1,9.097966552E-2,8.960300088E-1,9.567828178E0
8.215915700E-1,1.053448766E-1,9.295488000E-1,9.558251381E0
8.236037580E-1,1.005564705E-1,9.439139962E-1,9.524134636E0
8.256162580E-1,9.576806426E-2,9.487023950E-1,9.500192642E0
8.276288620E-1,1.005564705E-1,9.870096445E-1,9.500192642E0
8.296417260E-1,1.053448766E-1,9.965864420E-1,9.504981041E0
8.316545910E-1,1.101332754E-1,1.030105233E0,9.514557838E0
8.336676640E-1,1.197100878E-1,1.030105233E0,9.524134636E0
8.356808930E-1,1.292868853E-1,1.054047346E0,9.500192642E0
8.376932890E-1,1.340752989E-1,1.044470549E0,9.514557838E0
8.397057890E-1,1.436520964E-1,1.039682031E0,9.533711433E0
8.417165180E-1,1.244984865E-1,1.034893632E0,9.543288231E0
8.437275080E-1,9.097966552E-2,1.015740037E0,9.572616577E0
8.457387580E-1,6.703764945E-2,1.006163239E0,9.567828178E0
8.477501120E-1,2.394201607E-2,9.822212458E-1,9.596558571E0
8.497617780E-1,4.788403399E-3,9.822212458E-1,9.625288963E0
8.517735490E-1,-3.351882473E-2,9.487023950E-1,9.654019356E0
8.537856850E-1,-2.873042040E-2,9.247604012E-1,9.682749748E0
8.557979760E-1,-4.309562966E-2,9.151836038E-1,9.711481094E0
8.578103720E-1,-4.788403213E-2,9.056068063E-1,9.740211487E0
8.598230810E-1,-4.309562966E-2,8.816647530E-1,9.816825867E0
8.618358410E-1,-2.873042040E-2,8.912416101E-1,9.859921455E0
8.638488100E-1,-1.915361360E-2,8.768763542E-1,9.898228645E0
8.658619350E-1,-1.436521020E-2,8.816647530E-1,9.955689430E0
8.678747990E-1,4.788403399E-3,8.960300088E-1,1.004188061E1
8.698877680E-1,1.915361360E-2,9.008184075E-1,1.008976460E1
8.718986010E-1,4.309562966E-2,9.008184075E-1,1.015680218E1
8.739096430E-1,4.788403213E-2,9.103952050E-1,1.020468616E1
8.759209450E-1,8.140286058E-2,9.056068063E-1,1.022383976E1
8.779324030E-1,1.053448766E-1,8.960300088E-1,1.022383976E1
8.799441740E-1,1.197100878E-1,8.720879555E-1,1.021905136E1
8.819560490E-1,1.244984865E-1,8.481459618E-1,1.021905136E1
8.839682370E-1,1.388636976E-1,8.289923668E-1,1.018553257E1
8.859806850E-1,1.580173075E-1,7.763199210E-1,1.016159058E1
8.879932370E-1,1.771709323E-1,7.284358740E-1,1.016159058E1
8.900060490E-1,2.059013397E-1,7.044938207E-1,1.018074417E1
8.920189140E-1,2.202665508E-1,6.613982320E-1,1.017116737E1
8.940319870E-1,2.585737705E-1,6.326677799E-1,1.013764858E1
8.960451640E-1,3.016694188E-1,5.895721912E-1,1.012328339E1
8.980569870E-1,3.112462163E-1,5.267243981E-1,1.008976460E1
9.000689660E-1,3.303998411E-1,4.692635238E-1,1.009455299E1
9.020807370E-1,3.543418646E-1,4.692635238E-1,1.011370659E1
9.040927160E-1,3.639186621E-1,4.405331016E-1,1.013764858E1
9.061046430E-1,3.974374831E-1,4.405331016E-1,1.017595577E1
9.081167780E-1,4.309563041E-1,4.357447028E-1,1.019032097E1
9.101291220E-1,4.836287498E-1,4.309563041E-1,1.021905136E1
9.121415180E-1,5.219359994E-1,4.357447028E-1,1.025257015E1
9.141540700E-1,5.656301379E-1,4.309563041E-1,1.025735855E1
9.161662580E-1,6.039373875E-1,4.261679053E-1,1.022383976E1
9.181786530E-1,6.422445774E-1,4.405331016E-1,1.018553257E1
9.201911530E-1,6.518214345E-1,4.501099288E-1,1.016637897E1
9.222029240E-1,6.757634282E-1,4.740519226E-1,1.013286018E1
9.242148510E-1,6.997054219E-1,4.836287498E-1,1.008018780E1
9.262267780E-1,7.571662664E-1,4.979939461E-1,1.003230381E1
9.282389140E-1,7.667431235E-1,4.932055473E-1,9.984419823E0
9.302512060E-1,7.715315223E-1,4.884171486E-1,9.917382240E0
9.322636530E-1,7.428010702E-1,4.788403511E-1,9.864709854E0
9.342762580E-1,7.428010702E-1,4.788403511E-1,9.821614265E0
9.362871950E-1,7.044938207E-1,4.548983276E-1,9.773730278E0
9.382983930E-1,6.613982320E-1,4.309563041E-1,9.730634689E0
9.403098510E-1,6.470330358E-1,4.213795066E-1,9.687539101E0
9.423216220E-1,6.135141850E-1,3.926490843E-1,9.677961349E0
9.443337060E-1,5.799953341E-1,3.734954596E-1,9.630077362E0
9.463458410E-1,5.458779931E-1,3.639186621E-1,9.620500565E0
9.483582370E-1,4.644751251E-1,3.399766386E-1,9.630077362E0
9.503706330E-1,2.920926213E-1,3.208230138E-1,9.615712166E0
9.523831330E-1,1.867477298E-1,3.303998411E-1,9.548674583E0
9.543956330E-1,1.149216816E-1,3.591302633E-1,9.418789864E0
9.564085490E-1,5.267243832E-2,3.878606856E-1,9.342175484E0
9.584216740E-1,-2.873042040E-2,4.213795066E-1,9.308655739E0
9.604349030E-1,-1.053448766E-1,4.884171486E-1,9.270348549E0
9.624482370E-1,-2.106897533E-1,5.506663918E-1,9.232041359E0
9.644615700E-1,-2.968810201E-1,6.087257862E-1,9.193734169E0
9.664696950E-1,-3.782838583E-1,6.661866307E-1,9.145850182E0
9.684781330E-1,-4.213795066E-1,7.140706778E-1,9.083600998E0
9.704870390E-1,-4.740519226E-1,7.619546652E-1,9.045293808E0
9.724965180E-1,-5.123591423E-1,8.194155097E-1,9.088389397E0
9.745066220E-1,-5.219359994E-1,8.577227592E-1,9.117119789E0
9.765172470E-1,-5.171475410E-1,8.864531517E-1,9.165003777E0
9.785286010E-1,-5.027823448E-1,9.199720025E-1,9.203310966E0
9.805406850E-1,-4.692635238E-1,9.247604012E-1,9.227252960E0
9.825534450E-1,-4.405331016E-1,9.199720025E-1,9.279925346E0
9.845668830E-1,-4.070142806E-1,9.199720025E-1,9.279925346E0
9.865807370E-1,-3.639186621E-1,8.960300088E-1,9.275136948E0
9.885951120E-1,-3.639186621E-1,8.768763542E-1,9.284713745E0
9.906098510E-1,-3.591302633E-1,8.625111580E-1,9.270348549E0
9.926248510E-1,-3.303998411E-1,8.337807655E-1,9.232041359E0
9.946400080E-1,-2.825157940E-1,7.906851172E-1,9.251194954E0
9.966528720E-1,-2.585737705E-1,8.146271110E-1,9.289502144E0
9.986658410E-1,-2.394201756E-1,7.954735160E-1,9.351752281E0
1.000678862E0,-2.011129409E-1,7.858967185E-1,9.414001465E0
1.002691935E0,-2.011129409E-1,7.380126715E-1,9.533711433E0
1.004705008E0,-1.819593310E-1,7.284358740E-1,9.591770172E0
1.006713601E0,-1.819593310E-1,7.140706778E-1,9.663596153E0
1.008722508E0,-1.771709323E-1,7.044938207E-1,9.682749748E0
1.010731778E0,-1.675941199E-1,6.709750295E-1,9.687539101E0
1.012741570E0,-1.580173075E-1,6.709750295E-1,9.687539101E0
1.014751935E0,-1.532289088E-1,6.566098332E-1,9.658807755E0
1.016762768E0,-1.436520964E-1,6.613982320E-1,9.606135368E0
1.018774174E0,-1.292868853E-1,6.757634282E-1,9.548674583E0
1.020786206E0,-1.484405100E-1,6.422445774E-1,9.490615845E0
1.022798914E0,-1.628057212E-1,6.278793812E-1,9.442731857E0
1.024812195E0,-1.675941199E-1,6.518214345E-1,9.385271072E0
1.026825789E0,-1.628057212E-1,7.188590765E-1,9.299078941E0
1.028839643E0,-1.484405100E-1,7.523778677E-1,9.217676163E0
1.030853862E0,-1.484405100E-1,7.619546652E-1,9.150638580E0
1.032868393E0,-1.292868853E-1,7.763199210E-1,9.088389397E0
1.034883081E0,-1.292868853E-1,7.475894690E-1,9.093177795E0
1.036895528E0,-1.197100878E-1,7.044938207E-1,9.059659004E0
1.038908133E0,-1.244984865E-1,6.470330358E-1,8.992621422E0
1.040920841E0,-1.484405100E-1,5.752069354E-1,8.954314232E0
1.042933653E0,-1.723825186E-1,5.123591423E-1,8.939949036E0
1.044946518E0,-2.059013397E-1,4.644751251E-1,8.939949036E0
1.046956466E0,-2.154781520E-1,4.309563041E-1,8.930372238E0
1.048966674E0,-1.963245422E-1,4.070142806E-1,8.944737434E0
1.050977143E0,-1.723825186E-1,4.070142806E-1,8.973467827E0
1.052987976E0,-1.244984865E-1,4.357447028E-1,8.997409821E0
1.054999174E0,-7.661445439E-2,4.357447028E-1,9.045293808E0
1.057010581E0,1.436521020E-2,4.836287498E-1,8.968679428E0
1.059022456E0,-9.576806799E-3,5.075707436E-1,9.107542992E0
1.061034747E0,-4.309562966E-2,5.027823448E-1,9.390059471E0
1.063047456E0,-5.267243832E-2,4.884171486E-1,9.572616577E0
1.065060528E0,-1.915361360E-2,4.740519226E-1,9.639654160E0
1.067073758E0,9.576806799E-3,4.644751251E-1,9.654019356E0
1.069087247E0,2.394201607E-2,4.501099288E-1,9.697115898E0
1.071100945E0,4.788403213E-2,4.261679053E-1,9.730634689E0
1.073114799E0,2.394201607E-2,4.118026793E-1,9.730634689E0
1.075128706E0,3.830722719E-2,3.782838583E-1,9.711481094E0
1.077137872E0,3.830722719E-2,3.591302633E-1,9.677961349E0
1.079147351E0,4.309562966E-2,3.447650373E-1,9.625288963E0
1.081157247E0,5.746084079E-2,3.591302633E-1,9.591770172E0
1.083167612E0,9.097966552E-2,3.495534360E-1,9.563039780E0
1.085178445E0,1.149216816E-1,3.495534360E-1,9.519346237E0
1.087189643E0,1.340752989E-1,3.687070608E-1,9.490615845E0
1.089201414E0,1.388636976E-1,3.639186621E-1,9.481039047E0
1.091213706E0,1.340752989E-1,3.734954596E-1,9.481039047E0
1.093226362E0,1.292868853E-1,3.974374831E-1,9.514557838E0
1.095239487E0,9.576806426E-2,3.926490843E-1,9.572616577E0
1.097252872E0,5.746084079E-2,4.165911078E-1,9.663596153E0
1.099266622E0,-9.576806799E-3,4.213795066E-1,9.692327499E0
1.101280633E0,-5.267243832E-2,4.165911078E-1,9.735423088E0
1.103294903E0,-1.771709323E-1,4.453215301E-1,9.730634689E0
1.105309278E0,-1.915361285E-1,4.213795066E-1,9.744999886E0
1.107321049E0,-1.915361285E-1,4.070142806E-1,9.706692696E0
1.109332976E0,-1.963245422E-1,4.022258818E-1,9.682749748E0
1.111345060E0,-1.723825186E-1,4.022258818E-1,9.663596153E0
1.113357299E0,-1.388636976E-1,3.974374831E-1,9.658807755E0
1.115369539E0,-9.576806426E-2,3.830722570E-1,9.654019356E0
1.117381778E0,-5.746084079E-2,3.830722570E-1,9.677961349E0
1.119393028E0,-4.309562966E-2,3.687070608E-1,9.697115898E0
1.121404278E0,-9.576806799E-3,3.399766386E-1,9.687539101E0
1.123415789E0,-4.788403399E-3,3.351882398E-1,9.692327499E0
1.125427560E0,-2.394201607E-2,3.160346150E-1,9.721057892E0
1.127439435E0,-1.436521020E-2,2.825157940E-1,9.730634689E0
1.129451570E0,-1.915361360E-2,2.729389966E-1,9.725846291E0
1.131463758E0,-3.351882473E-2,2.585737705E-1,9.764153481E0
1.133476258E0,-5.267243832E-2,2.442085743E-1,9.735423088E0
1.135488966E0,-8.619125932E-2,2.346317619E-1,9.725846291E0
1.137501726E0,-1.197100878E-1,2.537853718E-1,9.721057892E0
1.139514643E0,-1.388636976E-1,2.825157940E-1,9.749788284E0
1.141526153E0,-1.388636976E-1,3.208230138E-1,9.764153481E0
1.143537872E0,-1.197100878E-1,3.495534360E-1,9.749788284E0
1.145549799E0,-1.101332754E-1,3.782838583E-1,9.744999886E0
1.147561778E0,-1.005564705E-1,3.830722570E-1,9.754576683E0
1.149573966E0,-1.149216816E-1,3.830722570E-1,9.778518677E0
1.151586153E0,-1.388636976E-1,3.687070608E-1,9.807249069E0
1.153598601E0,-1.675941199E-1,3.639186621E-1,9.840767860E0
1.155611206E0,-2.106897533E-1,3.351882398E-1,9.855133057E0
1.157623810E0,-2.346317619E-1,3.351882398E-1,9.883863449E0
1.159636570E0,-2.681505978E-1,3.208230138E-1,9.903017044E0
1.161648028E0,-2.920926213E-1,3.256114423E-1,9.917382240E0
1.163659695E0,-2.920926213E-1,3.256114423E-1,9.922170639E0
1.165671570E0,-3.064578176E-1,3.351882398E-1,9.926959038E0
1.167683497E0,-3.447650373E-1,3.351882398E-1,9.917382240E0
1.169695633E0,-3.639186621E-1,3.495534360E-1,9.941324234E0
1.171707820E0,-3.878606856E-1,3.782838583E-1,9.993996620E0
1.173720216E0,-3.878606856E-1,4.213795066E-1,9.979631424E0
1.175732820E0,-3.734954596E-1,4.453215301E-1,9.931747437E0
1.177745424E0,-3.256114423E-1,4.644751251E-1,9.883863449E0
1.179758185E0,-2.968810201E-1,4.932055473E-1,9.874286652E0
1.181769383E0,-2.729389966E-1,5.075707436E-1,9.855133057E0
1.183780789E0,-2.585737705E-1,5.123591423E-1,9.821614265E0
1.185792247E0,-2.489969730E-1,5.267243981E-1,9.797672272E0
1.187803810E0,-2.633621991E-1,5.171475410E-1,9.749788284E0
1.189815633E0,-2.442085743E-1,5.315127969E-1,9.687539101E0
1.191827560E0,-2.298433632E-1,5.123591423E-1,9.620500565E0
1.193839799E0,-2.154781520E-1,5.410895944E-1,9.596558571E0
1.195852299E0,-1.867477298E-1,5.410895944E-1,9.553462982E0
1.197864903E0,-1.580173075E-1,5.656301379E-1,9.509769440E0
1.199877716E0,-1.484405100E-1,5.943605900E-1,9.471462250E0
1.201890528E0,-1.388636976E-1,6.278793812E-1,9.418789864E0
1.203903497E0,-1.244984865E-1,6.374561787E-1,9.356540680E0
1.205916570E0,-1.244984865E-1,6.613982320E-1,9.303867340E0
1.207928758E0,-1.197100878E-1,6.853402257E-1,9.260771751E0
1.209941049E0,-1.340752989E-1,7.140706778E-1,9.203310966E0
1.211951258E0,-1.053448766E-1,7.380126715E-1,9.160215378E0
1.213961726E0,-1.005564705E-1,7.523778677E-1,9.126696587E0
1.215972508E0,-9.097966552E-2,7.763199210E-1,9.074024200E0
1.217983497E0,-9.576806426E-2,7.667431235E-1,9.040505409E0
1.219994851E0,-1.005564705E-1,7.475894690E-1,8.983044624E0
1.222006466E0,-9.576806426E-2,7.428010702E-1,8.925583839E0
1.224018497E0,-8.619125932E-2,7.380126715E-1,8.877699852E0
1.226030945E0,-1.005564705E-1,7.188590765E-1,8.844181061E0
1.228043601E0,-6.703764945E-2,7.188590765E-1,8.805873871E0
1.230056622E0,-6.224924326E-2,6.949170232E-1,8.781931877E0
1.232069747E0,-7.661445439E-2,6.949170232E-1,8.762778282E0
1.234083133E0,-1.101332754E-1,6.853402257E-1,8.734047890E0
1.236096518E0,-1.484405100E-1,6.709750295E-1,8.705317497E0
1.238110060E0,-2.059013397E-1,6.709750295E-1,8.686163902E0
1.240123706E0,-2.394201756E-1,6.661866307E-1,8.681375504E0
1.242134018E0,-2.777273953E-1,6.661866307E-1,8.710105896E0
1.244144539E0,-3.208230138E-1,6.613982320E-1,8.748413086E0
1.246155164E0,-3.926490843E-1,6.566098332E-1,8.805873871E0
1.248166153E0,-4.309563041E-1,6.470330358E-1,8.882488251E0
1.250177560E0,-4.644751251E-1,6.566098332E-1,8.935160637E0
1.252189383E0,-5.123591423E-1,6.566098332E-1,8.968679428E0
1.254201622E0,-5.219359994E-1,6.470330358E-1,9.059659004E0
1.256214070E0,-5.656301379E-1,6.278793812E-1,9.102754593E0
1.258226883E0,-5.847837925E-1,6.183025837E-1,9.107542992E0
1.260240008E0,-6.087257862E-1,5.943605900E-1,9.136273384E0
1.262253445E0,-6.757634282E-1,5.363011956E-1,9.184157372E0
1.264267091E0,-8.337807655E-1,2.154781520E-1,9.270348549E0
1.266279643E0,-9.056068063E-1,4.309562966E-2,9.399636269E0
1.268292351E0,-9.151836038E-1,2.394201607E-2,9.533711433E0
1.270305164E0,-9.056068063E-1,5.267243832E-2,9.639654160E0
1.272316883E0,-8.529343605E-1,1.340752989E-1,9.749788284E0
1.274328758E0,-7.858967185E-1,2.154781520E-1,9.816825867E0
1.276340112E0,-7.571662664E-1,2.202665508E-1,9.840767860E0
1.278351674E0,-6.805518270E-1,2.729389966E-1,9.864709854E0
1.280363445E0,-6.374561787E-1,3.112462163E-1,9.879075050E0
1.282375372E0,-5.458779931E-1,3.734954596E-1,9.879075050E0
1.284387299E0,-5.075707436E-1,4.453215301E-1,9.864709854E0
1.286399383E0,-5.123591423E-1,4.309563041E-1,9.874286652E0
1.288411518E0,-5.123591423E-1,4.022258818E-1,9.859921455E0
1.290423862E0,-5.656301379E-1,3.687070608E-1,9.840767860E0
1.292436466E0,-6.183025837E-1,3.303998411E-1,9.845556259E0
1.294449226E0,-6.470330358E-1,3.160346150E-1,9.835979462E0
1.296461726E0,-6.709750295E-1,3.208230138E-1,9.807249069E0
1.298474435E0,-7.044938207E-1,3.256114423E-1,9.749788284E0
1.300487299E0,-7.380126715E-1,2.681505978E-1,9.725846291E0
1.302500216E0,-7.858967185E-1,2.729389966E-1,9.711481094E0
1.304513185E0,-7.954735160E-1,2.777273953E-1,9.682749748E0
1.306522403E0,-8.289923668E-1,2.442085743E-1,9.615712166E0
1.308531935E0,-8.672995567E-1,2.250549644E-1,9.606135368E0
1.310541831E0,-8.864531517E-1,2.202665508E-1,9.630077362E0
1.312552195E0,-8.864531517E-1,2.011129409E-1,9.649230957E0
1.314563081E0,-8.960300088E-1,2.059013397E-1,9.658807755E0
1.316574331E0,-8.672995567E-1,2.298433632E-1,9.658807755E0
1.318586153E0,-8.577227592E-1,2.298433632E-1,9.673172951E0
1.320598549E0,-8.529343605E-1,1.963245422E-1,9.716269493E0
1.322611258E0,-7.763199210E-1,2.011129409E-1,9.697115898E0
1.324624435E0,-6.997054219E-1,2.154781520E-1,9.725846291E0
1.326637820E0,-6.326677799E-1,2.202665508E-1,9.754576683E0
1.328651622E0,-5.704185367E-1,2.059013397E-1,9.792883873E0
1.330665737E0,-4.932055473E-1,2.394201756E-1,9.840767860E0
1.332680060E0,-4.596867263E-1,2.633621991E-1,9.845556259E0
1.334694487E0,-4.070142806E-1,2.681505978E-1,9.821614265E0
1.336705008E0,-3.878606856E-1,2.968810201E-1,9.802460670E0
1.338715789E0,-3.734954596E-1,3.160346150E-1,9.740211487E0
1.340726831E0,-3.351882398E-1,3.112462163E-1,9.721057892E0
1.342737976E0,-2.968810201E-1,3.734954596E-1,9.687539101E0
1.344749435E0,-2.585737705E-1,4.548983276E-1,9.668384552E0
1.346761049E0,-2.537853718E-1,4.740519226E-1,9.630077362E0
1.348773028E0,-2.681505978E-1,4.022258818E-1,9.558251381E0
1.350785372E0,-3.399766386E-1,2.777273953E-1,9.519346237E0
1.352798081E0,-4.165911078E-1,1.436520964E-1,9.538499832E0
1.354811101E0,-4.453215301E-1,9.576806799E-3,9.563039780E0
1.356824174E0,-4.692635238E-1,-7.182604820E-2,9.606135368E0
1.358837508E0,-4.740519226E-1,-9.576806426E-2,9.630077362E0
1.360850997E0,-4.357447028E-1,-9.097966552E-2,9.668384552E0
1.362864643E0,-4.022258818E-1,-4.788403213E-2,9.692327499E0
1.364878289E0,-3.495534360E-1,9.576806799E-3,9.716269493E0
1.366887403E0,-3.112462163E-1,8.619125932E-2,9.735423088E0
1.368896831E0,-2.633621991E-1,1.388636976E-1,9.807249069E0
1.370906622E0,-2.202665508E-1,1.915361285E-1,9.926959038E0
1.372916883E0,-1.723825186E-1,2.298433632E-1,1.000357342E1
1.374927612E0,-1.388636976E-1,2.442085743E-1,1.003709221E1
1.376938758E0,-1.101332754E-1,2.633621991E-1,1.005624580E1
1.378950476E0,-1.149216816E-1,2.298433632E-1,1.008018780E1
1.380962768E0,-1.484405100E-1,2.298433632E-1,1.006582260E1
1.382975633E0,-1.340752989E-1,2.298433632E-1,1.006582260E1
1.384988966E0,-1.580173075E-1,2.011129409E-1,1.004188061E1
1.387002508E0,-1.819593310E-1,1.867477298E-1,1.000836182E1
1.389016414E0,-1.867477298E-1,1.292868853E-1,9.970054626E0
1.391030581E0,-1.819593310E-1,1.244984865E-1,9.984419823E0
1.393044956E0,-2.059013397E-1,1.053448766E-1,1.001793861E1
1.395059383E0,-2.106897533E-1,1.005564705E-1,1.004666901E1
1.397069383E0,-2.011129409E-1,7.182604820E-2,1.008018780E1
1.399079643E0,-2.298433632E-1,6.224924326E-2,1.013764858E1
1.401090216E0,-2.298433632E-1,5.746084079E-2,1.016637897E1
1.403101206E0,-2.394201756E-1,5.746084079E-2,1.019989777E1
1.405112560E0,-2.346317619E-1,5.746084079E-2,1.023820496E1
1.407124174E0,-2.202665508E-1,3.351882473E-2,1.029087734E1
1.409136258E0,-2.250549644E-1,3.351882473E-2,1.031960773E1
1.411148706E0,-2.202665508E-1,1.915361360E-2,1.033397293E1
1.413161570E0,-2.106897533E-1,0.000000000E0,1.035791492E1
1.415174747E0,-2.202665508E-1,-4.788403399E-3,1.039143372E1
1.417188028E0,-2.154781520E-1,-1.436521020E-2,1.042974091E1
1.419201414E0,-2.106897533E-1,-3.830722719E-2,1.047283649E1
1.421214956E0,-2.154781520E-1,-4.309562966E-2,1.050635529E1
1.423228653E0,-2.154781520E-1,-2.394201607E-2,1.055902767E1
1.425242403E0,-2.250549644E-1,-5.267243832E-2,1.062127686E1
1.427251883E0,-2.394201756E-1,-4.788403213E-2,1.067454815E1
1.429261622E0,-2.346317619E-1,-2.394201607E-2,1.074158573E1
1.431271674E0,-2.585737705E-1,-3.830722719E-2,1.076552773E1
1.433282195E0,-2.825157940E-1,-4.309562966E-2,1.078468132E1
1.435292976E0,-2.873041928E-1,-2.394201607E-2,1.079425812E1
1.437304070E0,-2.968810201E-1,-1.915361360E-2,1.079904652E1
1.439315737E0,-3.112462163E-1,-2.873042040E-2,1.079425812E1
1.441327924E0,-3.160346150E-1,-2.873042040E-2,1.077510452E1
1.443340789E0,-3.543418646E-1,-2.394201607E-2,1.074158573E1
1.445354070E0,-3.926490843E-1,-8.619125932E-2,1.073679733E1
1.447367716E0,-4.022258818E-1,-1.101332754E-1,1.072722054E1
1.449381466E0,-3.878606856E-1,-8.619125932E-2,1.070327854E1
1.451395268E0,-3.734954596E-1,-3.351882473E-2,1.068891335E1
1.453409070E0,-3.256114423E-1,0.000000000E0,1.062606525E1
1.455422976E0,-2.873041928E-1,6.703764945E-2,1.054945087E1
1.457435268E0,-2.825157940E-1,1.149216816E-1,1.046804810E1
1.459447664E0,-2.585737705E-1,1.675941199E-1,1.037706852E1
1.461457664E0,-2.442085743E-1,1.628057212E-1,1.027172375E1
1.463467976E0,-2.585737705E-1,1.675941199E-1,1.017595577E1
1.465478601E0,-2.537853718E-1,1.628057212E-1,1.012328339E1
1.467489487E0,-2.777273953E-1,8.619125932E-2,1.008018780E1
1.469500789E0,-2.968810201E-1,-1.436521020E-2,1.003709221E1
1.471512351E0,-2.777273953E-1,-2.873042040E-2,9.998785019E0
1.473524331E0,-2.250549644E-1,4.788403213E-2,9.926959038E0
1.475536726E0,-1.867477298E-1,1.197100878E-1,9.869498253E0
1.477549383E0,-1.484405100E-1,1.723825186E-1,9.807249069E0
1.479562456E0,-1.005564705E-1,2.250549644E-1,9.764153481E0
1.481575685E0,-8.619125932E-2,2.681505978E-1,9.697115898E0
1.483589226E0,-4.788403213E-2,3.016694188E-1,9.630077362E0
1.485602976E0,-4.788403213E-2,3.016694188E-1,9.572616577E0
1.487616987E0,-6.224924326E-2,2.825157940E-1,9.509769440E0
1.489631049E0,-8.140286058E-2,2.346317619E-1,9.495404243E0
1.491640008E0,-9.576806426E-2,1.867477298E-1,9.500192642E0
1.493649278E0,-8.619125932E-2,1.436520964E-1,9.495404243E0
1.495658966E0,-9.097966552E-2,1.197100878E-1,9.495404243E0
1.497668966E0,-9.576806426E-2,7.182604820E-2,9.495404243E0
1.499679539E0,-9.097966552E-2,5.746084079E-2,9.490615845E0
1.501690528E0,-9.097966552E-2,5.746084079E-2,9.524134636E0
1.503702195E0,-9.097966552E-2,8.140286058E-2,9.538499832E0
1.505714487E0,-6.224924326E-2,1.101332754E-1,9.538499832E0
1.507727247E0,-4.788403213E-2,1.340752989E-1,9.538499832E0
1.509740581E0,-4.788403399E-3,1.723825186E-1,9.572616577E0
1.511754226E0,3.830722719E-2,2.154781520E-1,9.615712166E0
1.513768289E0,4.309562966E-2,2.681505978E-1,9.658807755E0
1.515782456E0,4.309562966E-2,2.968810201E-1,9.730634689E0
1.517796883E0,3.351882473E-2,3.208230138E-1,9.764153481E0
1.519811414E0,0.000000000E0,3.495534360E-1,9.754576683E0
1.521822143E0,-1.436521020E-2,3.591302633E-1,9.764153481E0
1.523833133E0,-2.873042040E-2,4.022258818E-1,9.759365082E0
1.525844383E0,-6.703764945E-2,4.357447028E-1,9.783307076E0
1.527855997E0,-9.576806426E-2,4.357447028E-1,9.807249069E0
1.529867924E0,-1.101332754E-1,4.596867263E-1,9.840767860E0
1.531879956E0,-1.484405100E-1,4.644751251E-1,9.888651848E0
1.533892091E0,-1.819593310E-1,4.836287498E-1,9.869498253E0
1.535904487E0,-1.915361285E-1,4.979939461E-1,9.859921455E0
1.537917195E0,-2.106897533E-1,5.075707436E-1,9.855133057E0
1.539930164E0,-2.537853718E-1,4.932055473E-1,9.826402664E0
1.541943133E0,-2.777273953E-1,4.453215301E-1,9.807249069E0
1.543956258E0,-3.160346150E-1,4.357447028E-1,9.835979462E0
1.545969539E0,-3.495534360E-1,4.165911078E-1,9.874286652E0
1.547980685E0,-3.734954596E-1,4.165911078E-1,9.883863449E0
1.549992039E0,-3.639186621E-1,4.165911078E-1,9.874286652E0
1.552003445E0,-3.687070608E-1,3.830722570E-1,9.859921455E0
1.554015112E0,-3.687070608E-1,3.974374831E-1,9.869498253E0
1.556027039E0,-3.591302633E-1,4.118026793E-1,9.907805443E0
1.558039226E0,-3.639186621E-1,4.309563041E-1,9.960477829E0
1.560051674E0,-3.447650373E-1,4.405331016E-1,1.002272701E1
1.562064226E0,-3.399766386E-1,4.740519226E-1,1.004188061E1
1.564076987E0,-3.303998411E-1,4.596867263E-1,1.006582260E1
1.566089226E0,-3.399766386E-1,4.644751251E-1,1.007539940E1
1.568101466E0,-3.447650373E-1,4.596867263E-1,1.011370659E1
1.570113914E0,-3.447650373E-1,4.548983276E-1,1.013764858E1
1.572126570E0,-3.399766386E-1,4.596867263E-1,1.013286018E1
1.574139383E0,-3.160346150E-1,4.596867263E-1,1.011370659E1
1.576150945E0,-2.585737705E-1,4.932055473E-1,1.008018780E1
1.578162716E0,-1.963245422E-1,5.123591423E-1,1.003230381E1
1.580174643E0,-1.292868853E-1,5.458779931E-1,1.000357342E1
1.582186726E0,-9.097966552E-2,5.506663918E-1,9.979631424E0
1.584198966E0,-5.746084079E-2,5.704185367E-1,9.950901031E0
1.586211206E0,-9.576806799E-3,5.991489887E-1,9.907805443E0
1.588223653E0,4.788403399E-3,6.183025837E-1,9.788095474E0
1.590236206E0,-1.436521020E-2,6.183025837E-1,9.716269493E0
1.592248914E0,-1.005564705E-1,6.278793812E-1,9.692327499E0
1.594261726E0,-1.340752989E-1,6.230909824E-1,9.601346970E0
1.596271570E0,-1.053448766E-1,6.566098332E-1,9.428366661E0
1.598281726E0,-5.267243832E-2,6.949170232E-1,9.284713745E0
1.600292195E0,1.436521020E-2,7.284358740E-1,9.203310966E0
1.602303081E0,5.746084079E-2,7.619546652E-1,9.145850182E0
1.604314383E0,1.340752989E-1,7.763199210E-1,9.069235802E0
1.606325945E0,2.059013397E-1,7.858967185E-1,9.040505409E0
1.608338028E0,2.873041928E-1,8.050503135E-1,9.006986618E0
1.610350528E0,3.495534360E-1,8.433575630E-1,8.963891029E0
1.612363289E0,3.878606856E-1,8.625111580E-1,8.901641846E0
1.614376258E0,4.453215301E-1,8.960300088E-1,8.834604263E0
1.616389383E0,4.405331016E-1,9.151836038E-1,8.805873871E0
1.618402612E0,4.548983276E-1,9.247604012E-1,8.791508675E0
1.620416049E0,4.309563041E-1,9.439139962E-1,8.801085472E0
1.622429695E0,4.118026793E-1,9.247604012E-1,8.801085472E0
1.624443497E0,3.974374831E-1,9.391255975E-1,8.743624687E0
1.626454539E0,3.830722570E-1,9.343371987E-1,8.753201485E0
1.628465841E0,3.687070608E-1,9.247604012E-1,8.753201485E0
1.630477351E0,3.543418646E-1,9.199720025E-1,8.738836288E0
1.632489122E0,3.399766386E-1,9.343371987E-1,8.729259491E0
1.634501101E0,3.351882398E-1,9.487023950E-1,8.710105896E0
1.636513133E0,3.160346150E-1,9.534908533E-1,8.738836288E0
1.638525424E0,3.208230138E-1,9.630676508E-1,8.700529099E0
1.640537924E0,2.920926213E-1,9.630676508E-1,8.695740700E0
1.642550685E0,2.585737705E-1,9.917980433E-1,8.753201485E0
1.644563601E0,2.681505978E-1,9.965864420E-1,8.791508675E0
1.646576414E0,2.442085743E-1,1.010951638E0,8.825027466E0
1.648589331E0,1.915361285E-1,9.965864420E-1,8.939949036E0
1.650602299E0,1.532289088E-1,9.726444483E-1,8.987833023E0
1.652615320E0,1.388636976E-1,9.582792521E-1,9.040505409E0
1.654628341E0,9.097966552E-2,9.439139962E-1,9.064447403E0
1.656636778E0,9.097966552E-2,9.295488000E-1,9.088389397E0
1.658645581E0,8.140286058E-2,9.103952050E-1,9.117119789E0
1.660654799E0,8.619125932E-2,9.056068063E-1,9.174580574E0
1.662664383E0,1.101332754E-1,9.056068063E-1,9.217676163E0
1.664674539E0,1.292868853E-1,9.056068063E-1,9.260771751E0
1.666685216E0,1.340752989E-1,8.912416101E-1,9.294290543E0
1.668696622E0,1.532289088E-1,8.864531517E-1,9.323021889E0
1.670708758E0,1.436520964E-1,8.864531517E-1,9.356540680E0
1.672721570E0,1.436520964E-1,8.768763542E-1,9.361329079E0
1.674735008E0,1.340752989E-1,8.529343605E-1,9.390059471E0
1.676748810E0,1.101332754E-1,8.433575630E-1,9.404424667E0
1.678763081E0,1.101332754E-1,8.242039084E-1,9.414001465E0
1.680777716E0,1.101332754E-1,8.002619147E-1,9.461885452E0
1.682792403E0,1.005564705E-1,7.811083198E-1,9.504981041E0
1.684807247E0,8.140286058E-2,7.523778677E-1,9.533711433E0
1.686819487E0,5.746084079E-2,7.188590765E-1,9.591770172E0
1.688831883E0,5.746084079E-2,7.236474752E-1,9.658807755E0
1.690844383E0,6.224924326E-2,6.949170232E-1,9.682749748E0
1.692856987E0,6.703764945E-2,6.757634282E-1,9.711481094E0
1.694869591E0,6.703764945E-2,6.613982320E-1,9.754576683E0
1.696880008E0,6.703764945E-2,6.422445774E-1,9.802460670E0
1.698890685E0,6.224924326E-2,6.230909824E-1,9.831191063E0
1.700901622E0,5.267243832E-2,5.991489887E-1,9.855133057E0
1.702912872E0,8.619125932E-2,6.135141850E-1,9.869498253E0
1.704924435E0,9.576806426E-2,5.991489887E-1,9.903017044E0
1.706936153E0,1.628057212E-1,6.470330358E-1,9.907805443E0
1.708948237E0,3.543418646E-1,9.582792521E-1,1.015201378E1
1.710960633E0,4.501099288E-1,1.082777739E0,1.024778175E1
1.712973341E0,4.165911078E-1,1.068412542E0,1.031481934E1
1.714986310E0,3.208230138E-1,9.917980433E-1,1.032918453E1
1.716999331E0,1.867477298E-1,8.672995567E-1,1.029566574E1
1.719012560E0,4.309562966E-2,7.236474752E-1,1.026693535E1
1.721025945E0,-8.140286058E-2,6.278793812E-1,1.024778175E1
1.723039435E0,-1.723825186E-1,5.315127969E-1,1.019032097E1
1.725052924E0,-2.250549644E-1,4.357447028E-1,1.011370659E1
1.727062247E0,-2.537853718E-1,3.926490843E-1,1.006582260E1
1.729071831E0,-2.825157940E-1,3.591302633E-1,9.970054626E0
1.731081726E0,-3.064578176E-1,3.351882398E-1,9.965266228E0
1.733092091E0,-3.256114423E-1,3.734954596E-1,9.974843025E0
1.735102924E0,-3.687070608E-1,3.878606856E-1,1.002272701E1
1.737114122E0,-3.734954596E-1,4.213795066E-1,1.007061100E1
1.739125893E0,-3.734954596E-1,4.596867263E-1,1.014243698E1
1.741138237E0,-3.639186621E-1,4.836287498E-1,1.018074417E1
1.743151101E0,-3.782838583E-1,5.123591423E-1,1.014243698E1
1.745164383E0,-4.118026793E-1,5.027823448E-1,1.011370659E1
1.747177924E0,-3.926490843E-1,5.027823448E-1,1.007061100E1
1.749191778E0,-3.926490843E-1,5.075707436E-1,1.000836182E1
1.751205841E0,-3.734954596E-1,4.836287498E-1,9.903017044E0
1.753220112E0,-3.495534360E-1,5.123591423E-1,9.812037468E0
1.755234487E0,-3.208230138E-1,4.692635238E-1,9.768941879E0
1.757245320E0,-3.016694188E-1,4.548983276E-1,9.744999886E0
1.759256310E0,-2.920926213E-1,4.548983276E-1,9.730634689E0
1.761267508E0,-2.968810201E-1,4.261679053E-1,9.716269493E0
1.763278966E0,-2.920926213E-1,4.548983276E-1,9.701904297E0
1.765290685E0,-2.920926213E-1,4.501099288E-1,9.692327499E0
1.767302508E0,-2.633621991E-1,4.501099288E-1,9.682749748E0
1.769314643E0,-2.633621991E-1,4.261679053E-1,9.654019356E0
1.771327039E0,-2.681505978E-1,4.261679053E-1,9.658807755E0
1.773339695E0,-2.825157940E-1,3.734954596E-1,9.658807755E0
1.775352560E0,-3.256114423E-1,2.346317619E-1,9.644442558E0
1.777365476E0,-3.782838583E-1,6.224924326E-2,9.658807755E0
1.779378393E0,-3.687070608E-1,4.788403399E-3,9.687539101E0
1.781389331E0,-3.639186621E-1,0.000000000E0,9.744999886E0
1.783400320E0,-2.968810201E-1,4.309562966E-2,9.773730278E0
1.785411570E0,-2.489969730E-1,1.197100878E-1,9.783307076E0
1.787422924E0,-1.723825186E-1,1.819593310E-1,9.797672272E0
1.789434643E0,-1.053448766E-1,3.160346150E-1,9.807249069E0
1.791446518E0,0.000000000E0,4.118026793E-1,9.792883873E0
1.793458758E0,5.746084079E-2,5.123591423E-1,9.788095474E0
1.795471310E0,1.149216816E-1,6.087257862E-1,9.783307076E0
1.797484018E0,1.580173075E-1,6.901286244E-1,9.764153481E0
1.799496987E0,1.675941199E-1,7.475894690E-1,9.749788284E0
1.801510008E0,1.963245422E-1,7.571662664E-1,9.744999886E0
1.803523185E0,2.059013397E-1,7.811083198E-1,9.649230957E0
1.805536466E0,1.963245422E-1,7.667431235E-1,9.586981773E0
1.807549070E0,1.723825186E-1,7.858967185E-1,9.577404976E0
1.809561778E0,1.244984865E-1,7.906851172E-1,9.533711433E0
1.811571987E0,9.576806426E-2,7.571662664E-1,9.500192642E0
1.813582456E0,4.309562966E-2,7.619546652E-1,9.457097054E0
1.815593237E0,1.436521020E-2,7.715315223E-1,9.500192642E0
1.817604278E0,-2.394201607E-2,8.194155097E-1,9.668384552E0
1.819615685E0,-1.244984865E-1,7.044938207E-1,9.485827446E0
1.821627299E0,-2.011129409E-1,6.183025837E-1,9.385271072E0
1.823639331E0,-2.777273953E-1,5.799953341E-1,9.414001465E0
1.825651726E0,-3.399766386E-1,5.267243981E-1,9.495404243E0
1.827664487E0,-3.734954596E-1,4.644751251E-1,9.538499832E0
1.829677612E0,-3.830722570E-1,4.213795066E-1,9.601346970E0
1.831690841E0,-3.687070608E-1,4.165911078E-1,9.682749748E0
1.833704331E0,-3.447650373E-1,4.165911078E-1,9.783307076E0
1.835718028E0,-3.160346150E-1,4.357447028E-1,9.898228645E0
1.837731883E0,-2.873041928E-1,4.644751251E-1,9.984419823E0
1.839745737E0,-2.489969730E-1,4.788403511E-1,1.005145741E1
1.841753914E0,-2.059013397E-1,4.932055473E-1,1.008976460E1
1.843762456E0,-1.484405100E-1,5.219359994E-1,1.014722538E1
1.845771258E0,-1.101332754E-1,5.315127969E-1,1.019510937E1
1.847780685E0,-9.097966552E-2,5.267243981E-1,1.023820496E1
1.849790789E0,-3.830722719E-2,5.123591423E-1,1.027172375E1
1.851801466E0,-4.788403399E-3,5.267243981E-1,1.031481934E1
1.853812924E0,1.915361360E-2,5.267243981E-1,1.037228012E1
1.855825112E0,2.394201607E-2,5.363011956E-1,1.036749172E1
1.857838133E0,3.351882473E-2,5.554547906E-1,1.033876133E1
1.859851831E0,4.788403213E-2,5.410895944E-1,1.029566574E1
1.861865893E0,4.788403213E-2,5.506663918E-1,1.024299335E1
1.863880476E0,3.830722719E-2,5.704185367E-1,1.026693535E1
1.865895424E0,-4.788403399E-3,5.458779931E-1,1.025735855E1
1.867910685E0,-9.576806799E-3,5.506663918E-1,1.014243698E1
1.869926049E0,-1.915361360E-2,5.799953341E-1,1.000836182E1
1.871937924E0,-1.436521020E-2,5.799953341E-1,9.898228645E0
1.873949956E0,-1.915361360E-2,5.895721912E-1,9.792883873E0
1.875962091E0,-2.873042040E-2,5.799953341E-1,9.682749748E0
1.877974383E0,-3.830722719E-2,5.847837925E-1,9.610923767E0
1.879986778E0,-5.746084079E-2,5.799953341E-1,9.563039780E0
1.881998601E0,-7.182604820E-2,5.752069354E-1,9.490615845E0
1.884010581E0,-8.140286058E-2,5.506663918E-1,9.414001465E0
1.886022664E0,-1.149216816E-1,5.458779931E-1,9.332598686E0
1.888034903E0,-1.197100878E-1,5.554547906E-1,9.255983353E0
1.890047247E0,-1.244984865E-1,5.752069354E-1,9.246406555E0
1.892059591E0,-1.197100878E-1,6.087257862E-1,9.251194954E0
1.894071987E0,-1.149216816E-1,6.422445774E-1,9.275136948E0
1.896084383E0,-8.619125932E-2,6.757634282E-1,9.332598686E0
1.898096883E0,-7.182604820E-2,6.661866307E-1,9.337387085E0
1.900109435E0,-6.224924326E-2,6.278793812E-1,9.251194954E0
1.902122039E0,-5.746084079E-2,6.278793812E-1,9.188945770E0
1.904134643E0,-4.788403213E-2,5.991489887E-1,9.136273384E0
1.906144956E0,-3.830722719E-2,5.943605900E-1,9.174580574E0
1.908155424E0,-3.830722719E-2,5.656301379E-1,9.198522568E0
1.910166101E0,-3.351882473E-2,5.315127969E-1,9.232041359E0
1.912177039E0,-3.351882473E-2,5.123591423E-1,9.275136948E0
1.914188289E0,-3.830722719E-2,4.740519226E-1,9.313444138E0
1.916199695E0,-2.873042040E-2,4.548983276E-1,9.351752281E0
1.918211466E0,-1.436521020E-2,4.548983276E-1,9.366117477E0
1.920223601E0,-2.394201607E-2,4.357447028E-1,9.390059471E0
1.922236101E0,4.309562966E-2,4.884171486E-1,9.447520256E0
1.924248914E0,1.292868853E-1,6.805518270E-1,9.644442558E0
1.926261778E0,1.867477298E-1,6.709750295E-1,9.692327499E0
1.928274903E0,1.771709323E-1,6.326677799E-1,9.735423088E0
1.930288237E0,1.484405100E-1,5.458779931E-1,9.721057892E0
1.932301726E0,9.097966552E-2,4.548983276E-1,9.754576683E0
1.934315320E0,3.351882473E-2,3.256114423E-1,9.735423088E0
1.936324799E0,9.576806799E-3,2.489969730E-1,9.749788284E0
1.938334591E0,4.788403399E-3,1.915361285E-1,9.725846291E0
1.940344747E0,3.830722719E-2,1.963245422E-1,9.740211487E0
1.942355372E0,7.182604820E-2,1.723825186E-1,9.735423088E0
1.944366258E0,5.746084079E-2,1.532289088E-1,9.673172951E0
1.946377612E0,5.267243832E-2,1.340752989E-1,9.625288963E0
1.948389331E0,5.267243832E-2,1.532289088E-1,9.639654160E0
1.950401570E0,7.661445439E-2,1.723825186E-1,9.630077362E0
1.952414122E0,8.140286058E-2,2.059013397E-1,9.668384552E0
1.954427143E0,1.101332754E-1,2.346317619E-1,9.725846291E0
1.956440424E0,1.149216816E-1,2.729389966E-1,9.802460670E0
1.958454122E0,1.149216816E-1,2.729389966E-1,9.826402664E0
1.960468133E0,8.619125932E-2,3.160346150E-1,9.888651848E0
1.962482403E0,8.140286058E-2,3.208230138E-1,9.869498253E0
1.964495112E0,5.267243832E-2,3.351882398E-1,9.917382240E0
1.966507768E0,2.873042040E-2,3.399766386E-1,9.936535835E0
1.968520581E0,1.915361360E-2,3.591302633E-1,9.922170639E0
1.970533497E0,-4.788403399E-3,3.495534360E-1,9.879075050E0
1.972546518E0,-2.873042040E-2,3.256114423E-1,9.807249069E0
1.974559539E0,-6.224924326E-2,3.112462163E-1,9.783307076E0
1.976568966E0,-1.101332754E-1,3.016694188E-1,9.759365082E0
1.978578653E0,-1.436520964E-1,2.825157940E-1,9.711481094E0
1.980588653E0,-1.819593310E-1,2.825157940E-1,9.673172951E0
1.982599070E0,-1.867477298E-1,2.873041928E-1,9.610923767E0
1.984609956E0,-2.106897533E-1,3.016694188E-1,9.567828178E0
1.986621153E0,-2.250549644E-1,3.256114423E-1,9.543288231E0
1.988632872E0,-2.250549644E-1,3.351882398E-1,9.509769440E0
1.990645112E0,-2.202665508E-1,3.639186621E-1,9.495404243E0
1.992657820E0,-2.298433632E-1,3.782838583E-1,9.471462250E0
1.994670945E0,-2.346317619E-1,3.974374831E-1,9.437943459E0
1.996684278E0,-2.346317619E-1,4.165911078E-1,9.423578262E0
1.998697976E0,-2.442085743E-1,4.309563041E-1,9.394847870E0
2.000711935E0,-2.537853718E-1,4.548983276E-1,9.385271072E0
2.002726101E0,-2.633621991E-1,4.692635238E-1,9.361329079E0
2.004740372E0,-2.633621991E-1,4.932055473E-1,9.337387085E0
2.006751206E0,-2.537853718E-1,4.979939461E-1,9.346963882E0
2.008762299E0,-2.537853718E-1,5.171475410E-1,9.289502144E0
2.010773601E0,-2.394201756E-1,5.027823448E-1,9.236829758E0
2.012785164E0,-2.442085743E-1,5.027823448E-1,9.251194954E0
2.014796987E0,-2.537853718E-1,5.075707436E-1,9.308655739E0
2.016808914E0,-2.394201756E-1,5.075707436E-1,9.370905876E0
2.018821153E0,-2.394201756E-1,4.979939461E-1,9.399636269E0
2.020833653E0,-2.298433632E-1,5.027823448E-1,9.404424667E0
2.022846414E0,-2.059013397E-1,5.027823448E-1,9.433155060E0
2.024859331E0,-1.867477298E-1,4.884171486E-1,9.437943459E0
2.026872299E0,-1.771709323E-1,4.788403511E-1,9.447520256E0
2.028885372E0,-1.388636976E-1,4.884171486E-1,9.437943459E0
2.030898497E0,-1.484405100E-1,4.596867263E-1,9.385271072E0
2.032911674E0,-1.244984865E-1,4.501099288E-1,9.356540680E0
2.034924851E0,-1.197100878E-1,4.501099288E-1,9.346963882E0
2.036932820E0,-9.576806426E-2,4.692635238E-1,9.428366661E0
2.038941153E0,-8.140286058E-2,4.740519226E-1,9.514557838E0
2.040949956E0,-5.267243832E-2,4.884171486E-1,9.553462982E0
2.042959331E0,-3.351882473E-2,5.123591423E-1,9.563039780E0
2.044969383E0,-4.788403399E-3,5.075707436E-1,9.582193375E0
2.046980008E0,-1.436521020E-2,5.219359994E-1,9.563039780E0
2.048991414E0,-1.436521020E-2,5.315127969E-1,9.553462982E0
2.051003549E0,9.576806799E-3,5.410895944E-1,9.524134636E0
2.053016414E0,-1.915361360E-2,5.363011956E-1,9.514557838E0
2.055029956E0,-3.351882473E-2,5.458779931E-1,9.528923035E0
2.057043966E0,-4.788403213E-2,5.554547906E-1,9.519346237E0
2.059058497E0,-9.097966552E-2,5.506663918E-1,9.553462982E0
2.061073393E0,-1.149216816E-1,5.752069354E-1,9.606135368E0
2.063088601E0,-1.436520964E-1,5.991489887E-1,9.649230957E0
2.065103966E0,-1.771709323E-1,6.039373875E-1,9.677961349E0
2.067115841E0,-1.819593310E-1,6.374561787E-1,9.677961349E0
2.069127872E0,-2.250549644E-1,6.470330358E-1,9.701904297E0
2.071140060E0,-2.489969730E-1,6.470330358E-1,9.663596153E0
2.073152351E0,-2.585737705E-1,6.230909824E-1,9.639654160E0
2.075164747E0,-2.920926213E-1,6.326677799E-1,9.644442558E0
2.077175997E0,-3.016694188E-1,6.470330358E-1,9.677961349E0
2.079187456E0,-3.256114423E-1,6.278793812E-1,9.740211487E0
2.081199122E0,-3.351882398E-1,6.230909824E-1,9.792883873E0
2.083210945E0,-3.303998411E-1,6.326677799E-1,9.831191063E0
2.085222976E0,-3.351882398E-1,6.278793812E-1,9.859921455E0
2.087235112E0,-3.303998411E-1,6.422445774E-1,9.883863449E0
2.089247456E0,-3.208230138E-1,6.422445774E-1,9.917382240E0
2.091259799E0,-2.920926213E-1,6.183025837E-1,9.907805443E0
2.093272351E0,-2.920926213E-1,6.278793812E-1,9.859921455E0
2.095285060E0,-2.968810201E-1,5.895721912E-1,9.869498253E0
2.097297664E0,-2.633621991E-1,5.847837925E-1,9.869498253E0
2.099310424E0,-2.394201756E-1,5.895721912E-1,9.907805443E0
2.101323289E0,-2.298433632E-1,5.752069354E-1,9.912593842E0
2.103333601E0,-1.819593310E-1,5.847837925E-1,9.912593842E0
2.105344122E0,-1.628057212E-1,5.704185367E-1,9.936535835E0
2.107354799E0,-1.532289088E-1,5.656301379E-1,9.926959038E0
2.109365633E0,-1.244984865E-1,5.752069354E-1,9.926959038E0
2.111376674E0,-1.292868853E-1,5.656301379E-1,9.907805443E0
2.113387976E0,-9.097966552E-2,5.704185367E-1,9.883863449E0
2.115399539E0,-7.661445439E-2,5.799953341E-1,9.874286652E0
2.117411466E0,-6.703764945E-2,5.847837925E-1,9.893440247E0
2.119423862E0,-5.746084079E-2,6.135141850E-1,9.879075050E0
2.121436518E0,-5.746084079E-2,6.087257862E-1,9.835979462E0
2.123449591E0,-4.788403213E-2,6.278793812E-1,9.821614265E0
2.125463028E0,-7.661445439E-2,6.422445774E-1,9.797672272E0
2.127476622E0,-9.097966552E-2,6.374561787E-1,9.783307076E0
2.129490476E0,-1.101332754E-1,6.518214345E-1,9.783307076E0
2.131504070E0,-1.244984865E-1,6.278793812E-1,9.759365082E0
2.133517768E0,-1.388636976E-1,6.326677799E-1,9.754576683E0
2.135531466E0,-1.340752989E-1,6.230909824E-1,9.740211487E0
2.137541674E0,-1.628057212E-1,6.183025837E-1,9.744999886E0
2.139552091E0,-1.580173075E-1,6.183025837E-1,9.759365082E0
2.141562560E0,-1.436520964E-1,6.230909824E-1,9.768941879E0
2.143573341E0,-1.436520964E-1,6.230909824E-1,9.802460670E0
2.145584487E0,-1.244984865E-1,6.230909824E-1,9.826402664E0
2.147595893E0,-1.197100878E-1,6.326677799E-1,9.859921455E0
2.149607716E0,-8.140286058E-2,6.278793812E-1,9.912593842E0
2.151619747E0,-6.703764945E-2,6.470330358E-1,9.965266228E0
2.153632143E0,-4.788403213E-2,6.470330358E-1,1.001315022E1
2.155644903E0,-1.915361360E-2,6.470330358E-1,1.005145741E1
2.157658028E0,-2.394201607E-2,6.422445774E-1,1.008976460E1
2.159671414E0,2.394201607E-2,6.374561787E-1,1.010891819E1
2.161684799E0,2.394201607E-2,6.326677799E-1,1.012328339E1
2.163698341E0,2.873042040E-2,6.278793812E-1,1.012328339E1
2.165711987E0,4.309562966E-2,6.135141850E-1,1.015680218E1
2.167724278E0,5.746084079E-2,5.943605900E-1,1.015680218E1
2.169736622E0,5.746084079E-2,6.039373875E-1,1.016159058E1
2.171746935E0,5.746084079E-2,6.039373875E-1,1.015201378E1
2.173757456E0,7.182604820E-2,5.799953341E-1,1.011849499E1
2.175768081E0,8.619125932E-2,5.895721912E-1,1.011370659E1
2.177779122E0,6.703764945E-2,5.943605900E-1,1.011849499E1
2.179790528E0,6.703764945E-2,6.039373875E-1,1.011370659E1
2.181802143E0,9.576806426E-2,6.039373875E-1,1.011849499E1
2.183814174E0,7.661445439E-2,6.278793812E-1,1.011849499E1
2.185826622E0,7.182604820E-2,6.422445774E-1,1.013764858E1
2.187839278E0,5.746084079E-2,6.470330358E-1,1.016159058E1
2.189852247E0,3.830722719E-2,6.661866307E-1,1.018074417E1
2.191865320E0,2.394201607E-2,6.949170232E-1,1.023820496E1
2.193878653E0,2.394201607E-2,7.092822790E-1,1.025735855E1
2.195892143E0,1.915361360E-2,7.332242727E-1,1.026693535E1
2.197905841E0,-9.576806799E-3,7.284358740E-1,1.025257015E1
2.199919591E0,-1.436521020E-2,7.428010702E-1,1.020947456E1
2.201929747E0,-2.873042040E-2,7.619546652E-1,1.019989777E1
2.203940164E0,-4.788403213E-2,7.475894690E-1,1.020468616E1
2.205950841E0,-7.182604820E-2,7.667431235E-1,1.017116737E1
2.207961883E0,-8.140286058E-2,7.811083198E-1,1.017116737E1
2.209973289E0,-1.101332754E-1,7.906851172E-1,1.018553257E1
2.211984851E0,-1.292868853E-1,7.954735160E-1,1.020468616E1
2.213996831E0,-1.532289088E-1,8.002619147E-1,1.021426296E1
2.216009174E0,-1.771709323E-1,8.242039084E-1,1.025735855E1
2.218021935E0,-1.915361285E-1,8.625111580E-1,1.026693535E1
2.220035008E0,-2.202665508E-1,8.625111580E-1,1.026214695E1
2.222048393E0,-2.202665508E-1,9.103952050E-1,1.024299335E1
2.224061987E0,-2.298433632E-1,9.295488000E-1,1.023341656E1
2.226075737E0,-2.442085743E-1,9.487023950E-1,1.019989777E1
2.228089591E0,-2.585737705E-1,9.917980433E-1,1.017595577E1
2.230103445E0,-2.777273953E-1,1.015740037E0,1.015201378E1
2.232116466E0,-2.585737705E-1,1.044470549E0,1.012328339E1
2.234128549E0,-2.633621991E-1,1.073200941E0,1.008976460E1
2.236136310E0,-2.825157940E-1,1.082777739E0,1.002272701E1
2.238144383E0,-2.825157940E-1,1.097142935E0,9.993996620E0
2.240152924E0,-2.585737705E-1,1.145026922E0,9.936535835E0
2.242162091E0,-2.537853718E-1,1.149815321E0,9.888651848E0
2.244171935E0,-2.442085743E-1,1.149815321E0,9.864709854E0
2.246182403E0,-2.489969730E-1,1.121084929E0,9.840767860E0
2.248193706E0,-2.633621991E-1,1.087566137E0,9.821614265E0
2.250205789E0,-2.825157940E-1,1.068412542E0,9.807249069E0
2.252218653E0,-2.729389966E-1,1.039682031E0,9.831191063E0
2.254232195E0,-2.537853718E-1,1.034893632E0,9.840767860E0
2.256246153E0,-2.346317619E-1,1.020528436E0,9.850344658E0
2.258260633E0,-2.537853718E-1,1.015740037E0,9.879075050E0
2.260275528E0,-2.298433632E-1,1.020528436E0,9.926959038E0
2.262290737E0,-2.154781520E-1,1.034893632E0,9.989208221E0
2.264306101E0,-1.915361285E-1,1.039682031E0,1.001315022E1
2.266317403E0,-1.771709323E-1,1.044470549E0,1.005145741E1
2.268328966E0,-1.675941199E-1,1.039682031E0,1.009455299E1
2.270340737E0,-1.484405100E-1,1.025316834E0,1.014243698E1
2.272352768E0,-1.340752989E-1,1.010951638E0,1.020947456E1
2.274365008E0,-1.532289088E-1,1.030105233E0,1.026214695E1
2.276378185E0,-1.340752989E-1,1.025316834E0,1.032918453E1
2.278390945E0,-1.292868853E-1,1.030105233E0,1.039622211E1
2.280402820E0,-1.292868853E-1,1.044470549E0,1.043931770E1
2.282414747E0,-1.388636976E-1,1.058835745E0,1.053029728E1
2.284426831E0,-1.436520964E-1,1.068412542E0,1.059254646E1
2.286438966E0,-1.675941199E-1,1.077989340E0,1.064521885E1
2.288451101E0,-1.484405100E-1,1.082777739E0,1.070806694E1
2.290463393E0,-1.340752989E-1,1.101931334E0,1.073679733E1
2.292475893E0,-1.388636976E-1,1.101931334E0,1.078468132E1
2.294488549E0,-1.053448766E-1,1.121084929E0,1.083735371E1
2.296500997E0,-1.053448766E-1,1.140238523E0,1.090439129E1
2.298513601E0,-7.661445439E-2,1.130661726E0,1.098579407E1
2.300526310E0,-9.576806426E-2,1.168969035E0,1.103846741E1
2.302539070E0,-9.097966552E-2,1.207276225E0,1.115338898E1
2.304551883E0,-7.661445439E-2,1.269525409E0,1.125873375E1
2.306560945E0,-3.830722719E-2,1.322197914E0,1.133055973E1
2.308570320E0,9.576806799E-3,1.370081902E0,1.139280891E1
2.310580060E0,4.309562966E-2,1.427542806E0,1.142632771E1
2.312590268E0,1.005564705E-1,1.446696401E0,1.147900009E1
2.314600997E0,1.388636976E-1,1.470638394E0,1.153646088E1
2.316612143E0,1.915361285E-1,1.504157186E0,1.161786366E1
2.318623914E0,2.585737705E-1,1.518522382E0,1.169447803E1
2.320636258E0,2.920926213E-1,1.537676096E0,1.178066921E1
2.322649174E0,3.303998411E-1,1.552041292E0,1.188661289E1
2.324662612E0,3.878606856E-1,1.552041292E0,1.200632286E1
2.326676258E0,4.357447028E-1,1.580771685E0,1.214039803E1
2.328690268E0,4.501099288E-1,1.614290476E0,1.230320358E1
2.330704539E0,5.027823448E-1,1.652597666E0,1.247079849E1
2.332719018E0,5.027823448E-1,1.691503525E0,1.265754604E1
2.334733601E0,5.123591423E-1,1.710657120E0,1.277246761E1
2.336744539E0,5.075707436E-1,1.734599113E0,1.290654278E1
2.338755633E0,4.692635238E-1,1.768117905E0,1.301727486E1
2.340766935E0,4.692635238E-1,1.811213613E0,1.293108368E1
2.342778497E0,4.836287498E-1,1.983596087E0,1.246122169E1
2.344790268E0,4.453215301E-1,1.993172884E0,1.243727970E1
2.346802143E0,3.543418646E-1,2.002749681E0,1.247079849E1
2.348814331E0,3.064578176E-1,1.997961283E0,1.254262447E1
2.350826726E0,2.298433632E-1,1.983596087E0,1.263839245E1
2.352839383E0,1.867477298E-1,1.911770105E0,1.274373722E1
2.354852195E0,1.388636976E-1,1.878251195E0,1.287781239E1
2.356864956E0,8.619125932E-2,1.820790410E0,1.294066048E1
2.358877872E0,1.915361360E-2,1.777694821E0,1.306515884E1
2.360890893E0,-3.351882473E-2,1.739387512E0,1.324232960E1
2.362904018E0,-1.197100878E-1,1.681328177E0,1.344823074E1
2.364917143E0,-2.633621991E-1,1.671751380E0,1.345780754E1
2.366926570E0,-2.920926213E-1,1.614290476E0,1.332852077E1
2.368936258E0,-2.920926213E-1,1.556829691E0,1.315613842E1
2.370946258E0,-3.016694188E-1,1.485003591E0,1.305079365E1
2.372956674E0,-3.734954596E-1,1.441908002E0,1.301727486E1
2.374967508E0,-4.118026793E-1,1.417966008E0,1.302206326E1
2.376978653E0,-4.740519226E-1,1.432331204E0,1.275331402E1
2.378990320E0,-4.932055473E-1,1.475426793E0,1.243249130E1
2.381002456E0,-5.506663918E-1,1.552041292E0,1.213082123E1
2.383015112E0,-5.847837925E-1,1.628655672E0,1.191055489E1
2.385028185E0,-5.602431893E-1,1.696291924E0,1.175193882E1
2.387041466E0,-4.836287498E-1,1.744175911E0,1.150773048E1
2.389055112E0,-4.644751251E-1,1.777694821E0,1.129704094E1
2.391068914E0,-4.309563041E-1,1.825578809E0,1.114860058E1
2.393082924E0,-4.692635238E-1,1.878251195E0,1.100494766E1
2.395096935E0,-4.596867263E-1,1.974019289E0,1.089960289E1
2.397107403E0,-4.405331016E-1,2.041056871E0,1.078946972E1
2.399118133E0,-4.644751251E-1,2.103306293E0,1.068412495E1
2.401129122E0,-4.932055473E-1,2.199074268E0,1.054466248E1
2.403140476E0,-5.123591423E-1,2.261323452E0,1.044889450E1
2.405152195E0,-5.410895944E-1,2.328361034E0,1.037706852E1
2.407164070E0,-5.656301379E-1,2.424129248E0,1.033397293E1
2.409176310E0,-5.363011956E-1,2.486378431E0,1.025735855E1
2.411188862E0,-5.315127969E-1,2.567781210E0,1.021905136E1
2.413201726E0,-5.554547906E-1,2.610877037E0,1.022383976E1
2.415214851E0,-5.410895944E-1,2.663549423E0,1.024778175E1
2.417228028E0,-4.932055473E-1,2.711433411E0,1.024778175E1
2.419241414E0,-4.357447028E-1,2.773682594E0,1.026693535E1
2.421254903E0,-3.878606856E-1,2.836530447E0,1.025735855E1
2.423268445E0,-3.208230138E-1,2.908356428E0,1.026693535E1
2.425281987E0,-2.537853718E-1,2.956240654E0,1.023820496E1
2.427290633E0,-1.867477298E-1,3.013701439E0,1.020947456E1
2.429299539E0,-1.244984865E-1,3.042431831E0,1.019989777E1
2.431308862E0,-9.576806426E-2,3.056797028E0,1.015680218E1
2.433318706E0,-1.053448766E-1,3.047220230E0,1.010412979E1
2.435329122E0,-1.101332754E-1,3.008913040E0,1.008497620E1
2.437340008E0,-1.292868853E-1,2.999336243E0,1.005145741E1
2.439351570E0,-1.005564705E-1,3.008913040E0,9.984419823E0
2.441363706E0,-1.053448766E-1,3.023278236E0,9.936535835E0
2.443376258E0,-5.746084079E-2,3.056797028E0,9.936535835E0
2.445389174E0,-3.351882473E-2,3.138199806E0,9.926959038E0
2.447402508E0,4.788403399E-3,3.205237627E0,9.926959038E0
2.449416310E0,3.830722719E-2,3.277063608E0,9.931747437E0
2.451430320E0,5.746084079E-2,3.348889589E0,9.936535835E0
2.453444643E0,5.746084079E-2,3.396773577E0,9.931747437E0
2.455459174E0,8.140286058E-2,3.454234600E0,9.955689430E0
2.457472716E0,3.351882473E-2,3.487753391E0,9.974843025E0
2.459486362E0,-1.436521020E-2,3.497330189E0,1.005145741E1
2.461496414E0,-1.005564705E-1,3.497330189E0,1.007539940E1
2.463506726E0,-1.628057212E-1,3.492541790E0,1.009934139E1
2.465517351E0,-2.154781520E-1,3.497330189E0,1.010891819E1
2.467528185E0,-2.825157940E-1,3.497330189E0,1.014722538E1
2.469539435E0,-3.112462163E-1,3.516483784E0,1.014722538E1
2.471550893E0,-3.399766386E-1,3.545214176E0,1.013764858E1
2.473562768E0,-3.543418646E-1,3.602674961E0,1.016159058E1
2.475575060E0,-3.734954596E-1,3.636193752E0,1.013764858E1
2.477587612E0,-3.926490843E-1,3.674500942E0,1.013764858E1
2.479600581E0,-4.261679053E-1,3.703231573E0,1.020947456E1
2.481613706E0,-4.979939461E-1,3.722385168E0,1.023341656E1
2.483627143E0,-5.363011956E-1,3.760692358E0,1.031481934E1
2.485640789E0,-5.410895944E-1,3.789422750E0,1.037228012E1
2.487654435E0,-5.410895944E-1,3.846883535E0,1.034833813E1
2.489668185E0,-5.554547906E-1,3.885190725E0,1.020468616E1
2.491679383E0,-5.847837925E-1,3.909132719E0,1.010412979E1
2.493690737E0,-7.188590765E-1,3.967192173E0,1.008976460E1
2.495702299E0,-8.577227592E-1,4.043806553E0,1.010412979E1
2.497713966E0,-9.008184075E-1,4.120420933E0,1.004666901E1
2.499725893E0,-8.672995567E-1,4.197035789E0,9.850344658E0
2.501737872E0,-8.242039084E-1,4.278438568E0,9.673172951E0
2.503750112E0,-7.763199210E-1,4.364629745E0,9.606135368E0
2.505762403E0,-7.236474752E-1,4.469974518E0,9.543288231E0
2.507775008E0,-6.853402257E-1,4.546588898E0,9.528923035E0
2.509787820E0,-6.326677799E-1,4.599261284E0,9.490615845E0
2.511800528E0,-5.704185367E-1,4.632780075E0,9.394847870E0
2.513813393E0,-5.315127969E-1,4.647145271E0,9.251194954E0
2.515826362E0,-5.315127969E-1,4.647145271E0,9.136273384E0
2.517839435E0,-5.506663918E-1,4.623203278E0,8.997409821E0
2.519848237E0,-5.847837925E-1,4.589684486E0,8.930372238E0
2.521857195E0,-6.183025837E-1,4.599261284E0,8.858546257E0
2.523866570E0,-6.326677799E-1,4.604049683E0,8.734047890E0
2.525876518E0,-6.374561787E-1,4.608838081E0,8.652645111E0
2.527887091E0,-6.039373875E-1,4.666299343E0,8.523358345E0
2.529898341E0,-5.554547906E-1,4.695029736E0,8.441955566E0
2.531910060E0,-4.979939461E-1,4.781220913E0,8.302493095E0
2.533922456E0,-4.692635238E-1,4.857835293E0,8.216301918E0
2.535935476E0,-4.548983276E-1,4.915296078E0,8.125322342E0
2.537949122E0,-4.118026793E-1,4.977545261E0,8.005612373E0
2.539963237E0,-4.022258818E-1,5.015852451E0,7.852383137E0
2.541977560E0,-3.495534360E-1,5.073912144E0,7.718307495E0
2.543992195E0,-2.920926213E-1,5.136161327E0,7.589020729E0
2.546006987E0,-2.059013397E-1,5.212775707E0,7.416638374E0
2.548021935E0,-1.580173075E-1,5.303755283E0,7.311293602E0
2.550036206E0,-1.197100878E-1,5.370792866E0,7.272387505E0
2.552043445E0,-1.101332754E-1,5.466560841E0,7.238868713E0
2.554051049E0,-8.619125932E-2,5.538387299E0,7.200561523E0
2.556059174E0,-3.351882473E-2,5.624578476E0,7.147889137E0
2.558067976E0,1.915361360E-2,5.696404457E0,7.119158745E0
2.560077508E0,4.788403213E-2,5.744288445E0,7.095216751E0
2.562087872E0,8.619125932E-2,5.792172432E0,7.090428352E0
2.564099122E0,9.097966552E-2,5.806537628E0,7.095216751E0
2.566111466E0,1.197100878E-1,5.816114426E0,7.056909561E0
2.568124695E0,1.149216816E-1,5.830479622E0,7.009025574E0
2.570138706E0,1.101332754E-1,5.840056419E0,6.980295181E0
2.572153445E0,6.703764945E-2,5.878363609E0,7.004237175E0
2.574168706E0,3.351882473E-2,5.859210014E0,6.975506783E0
2.576184174E0,-4.788403399E-3,5.801749229E0,6.841431141E0
2.578199695E0,-4.788403399E-3,5.768230438E0,6.558915615E0
2.580215268E0,-1.723825186E-1,5.763442039E0,6.587646008E0
2.582230841E0,-4.453215301E-1,5.825691223E0,6.994660378E0
2.584242664E0,-6.278793812E-1,5.868786812E0,7.306505203E0
2.586249331E0,-6.853402257E-1,5.902305603E0,7.392696381E0
2.588256466E0,-6.709750295E-1,5.950189590E0,7.354389191E0
2.590264174E0,-6.087257862E-1,5.954977989E0,7.291541100E0
2.592272664E0,-6.087257862E-1,5.907094002E0,7.248445511E0
2.594281987E0,-5.506663918E-1,5.892728806E0,7.162254333E0
2.596292039E0,-4.692635238E-1,5.926247597E0,7.104793549E0
2.598303081E0,-3.639186621E-1,6.022016048E0,6.999448776E0
2.600315112E0,-2.681505978E-1,6.127360821E0,6.908469200E0
2.602328133E0,-2.154781520E-1,6.190208435E0,6.831854343E0
2.604342039E0,-2.585737705E-1,6.194996834E0,6.822277546E0
2.606357351E0,-3.782838583E-1,6.156091213E0,6.827065945E0
2.608373081E0,-5.027823448E-1,6.098630428E0,6.803123951E0
2.610389018E0,-5.704185367E-1,6.084265232E0,6.783970356E0
2.612405060E0,-5.847837925E-1,6.117784023E0,6.678625584E0
2.614421206E0,-5.410895944E-1,6.156091213E0,6.578069210E0
2.616431883E0,-4.788403511E-1,6.238092422E0,6.463147640E0
2.618442820E0,-4.309563041E-1,6.305130005E0,6.324283600E0
2.620454018E0,-3.782838583E-1,6.367379189E0,6.190208435E0
2.622465528E0,-3.543418646E-1,6.458359241E0,6.098630428E0
2.624477351E0,-2.968810201E-1,6.534973621E0,5.978919983E0
2.626489331E0,-2.633621991E-1,6.592434406E0,5.878363609E0
2.628501674E0,-2.298433632E-1,6.664260387E0,5.773018837E0
2.630514278E0,-2.202665508E-1,6.745663166E0,5.610213280E0
2.632527143E0,-2.154781520E-1,6.769605160E0,5.442618847E0
2.634540216E0,-2.873041928E-1,6.755239964E0,5.361216068E0
2.636553341E0,-3.447650373E-1,6.726509571E0,5.275024891E0
2.638565997E0,-3.878606856E-1,6.702567577E0,5.246294498E0
2.640578758E0,-4.070142806E-1,6.721721172E0,5.236717701E0
2.642591622E0,-4.070142806E-1,6.745663166E0,5.121796131E0
2.644604539E0,-3.687070608E-1,6.798335552E0,4.991910458E0
2.646614226E0,-3.351882398E-1,6.884527206E0,4.848258495E0
2.648624226E0,-3.256114423E-1,6.932411194E0,4.800374508E0
2.650634539E0,-3.543418646E-1,6.965929985E0,4.747702122E0
2.652645268E0,-4.070142806E-1,6.970718384E0,4.752490520E0
2.654656414E0,-4.548983276E-1,6.970718384E0,4.790797710E0
2.656667924E0,-5.171475410E-1,6.970718384E0,4.824316502E0
2.658679956E0,-5.363011956E-1,6.975506783E0,4.862623692E0
2.660692456E0,-5.219359994E-1,6.999448776E0,4.939238071E0
2.662705424E0,-5.171475410E-1,7.037755966E0,5.006275654E0
2.664718758E0,-5.123591423E-1,7.071274757E0,5.078700542E0
2.666732195E0,-5.171475410E-1,7.076063156E0,5.169680119E0
2.668745893E0,-5.410895944E-1,7.100005150E0,5.279813290E0
2.670759747E0,-5.315127969E-1,7.114370346E0,5.361216068E0
2.672773706E0,-4.979939461E-1,7.133523941E0,5.366004467E0
2.674787716E0,-4.740519226E-1,7.162254333E0,5.385158062E0
2.676796466E0,-4.548983276E-1,7.190984726E0,5.351639271E0
2.678805528E0,-4.213795066E-1,7.234080315E0,5.308543682E0
2.680815008E0,-3.974374831E-1,7.258022308E0,5.231929302E0
2.682825008E0,-3.495534360E-1,7.291541100E0,5.136161327E0
2.684835581E0,-3.064578176E-1,7.320870399E0,5.015852451E0
2.686846622E0,-2.394201756E-1,7.387907982E0,4.920084476E0
2.688858341E0,-1.771709323E-1,7.411849976E0,4.843470097E0
2.690870685E0,-1.244984865E-1,7.483675957E0,4.728548527E0
2.692883601E0,-3.830722719E-2,7.536348343E0,4.627991676E0
2.694897039E0,4.788403399E-3,7.598597527E0,4.537012100E0
2.696910789E0,2.873042040E-2,7.656058311E0,4.508281708E0
2.698924956E0,4.309562966E-2,7.689577103E0,4.460397720E0
2.700939383E0,2.873042040E-2,7.742249966E0,4.388571739E0
2.702954018E0,2.394201607E-2,7.775768757E0,4.268861771E0
2.704968758E0,3.351882473E-2,7.814075947E0,4.096478939E0
2.706978966E0,9.576806799E-3,7.842806339E0,3.913921118E0
2.708989435E0,4.788403399E-3,7.857171535E0,3.770269156E0
2.711000216E0,-3.351882473E-2,7.895478725E0,3.693654776E0
2.713011310E0,-5.746084079E-2,7.895478725E0,3.650558949E0
2.715022768E0,-9.097966552E-2,7.924209118E0,3.674500942E0
2.717034383E0,-1.197100878E-1,7.943362713E0,3.664924145E0
2.719046414E0,-1.388636976E-1,7.952939510E0,3.708019972E0
2.721058810E0,-1.963245422E-1,7.952939510E0,3.775057554E0
2.723071570E0,-2.537853718E-1,7.957727909E0,3.880402327E0
2.725084643E0,-2.681505978E-1,7.986458302E0,3.981557369E0
2.727097820E0,-3.447650373E-1,7.986458302E0,4.153939724E0
2.729111258E0,-4.644751251E-1,7.919420719E0,4.288015366E0
2.731124851E0,-5.752069354E-1,7.881113529E0,4.326322556E0
2.733138549E0,-6.470330358E-1,7.828441143E0,4.331110954E0
2.735152247E0,-6.757634282E-1,7.794922352E0,4.297592163E0
2.737161883E0,-6.805518270E-1,7.770980358E0,4.235342979E0
2.739171778E0,-6.326677799E-1,7.780557156E0,4.139574528E0
2.741181987E0,-5.363011956E-1,7.823652744E0,4.067748547E0
2.743192560E0,-4.644751251E-1,7.847594738E0,3.948038578E0
2.745203549E0,-3.830722570E-1,7.890690327E0,3.813364744E0
2.747214799E0,-2.920926213E-1,7.928997517E0,3.645770550E0
2.749226570E0,-2.298433632E-1,7.967304707E0,3.468599796E0
2.751238810E0,-1.484405100E-1,8.043919563E0,3.315370798E0
2.753251518E0,-8.140286058E-2,8.110957146E0,3.138199806E0
2.755264643E0,4.788403399E-3,8.192359924E0,2.970605850E0
2.757277924E0,7.661445439E-2,8.249820709E0,2.797624588E0
2.759291518E0,1.053448766E-1,8.336011887E0,2.682703018E0
2.761305372E0,1.532289088E-1,8.417414665E0,2.591723442E0
2.763319383E0,1.628057212E-1,8.489839554E0,2.519897223E0
2.765333497E0,1.436520964E-1,8.518569946E0,2.457648039E0
2.767344903E0,1.292868853E-1,8.571242332E0,2.400187254E0
2.769356466E0,1.101332754E-1,8.609549522E0,2.333149672E0
2.771368081E0,7.661445439E-2,8.638279915E0,2.285265446E0
2.773379695E0,7.182604820E-2,8.667010307E0,2.246958256E0
2.775391310E0,5.267243832E-2,8.657433510E0,2.213439465E0
2.777403341E0,3.830722719E-2,8.633491516E0,2.237381458E0
2.779415581E0,3.351882473E-2,8.623914719E0,2.251746655E0
2.781427820E0,2.873042040E-2,8.633491516E0,2.318784237E0
2.783440268E0,5.746084079E-2,8.662221909E0,2.404975653E0
2.785452872E0,8.140286058E-2,8.714894295E0,2.491166830E0
2.787465164E0,1.436520964E-1,8.762778282E0,2.519897223E0
2.789477612E0,1.771709323E-1,8.781931877E0,2.586935043E0
2.791489539E0,2.011129409E-1,8.781931877E0,2.658761024E0
2.793501622E0,2.154781520E-1,8.734047890E0,2.682703018E0
2.795513862E0,1.963245422E-1,8.657433510E0,2.701856613E0
2.797526101E0,1.963245422E-1,8.619126320E0,2.697068214E0
2.799538497E0,1.915361285E-1,8.576030731E0,2.697068214E0
2.801550112E0,1.723825186E-1,8.542511940E0,2.653972626E0
2.803561935E0,1.723825186E-1,8.547300339E0,2.620453835E0
2.805573966E0,1.771709323E-1,8.576030731E0,2.577358246E0
2.807586049E0,2.154781520E-1,8.614337921E0,2.510320425E0
2.809598341E0,2.585737705E-1,8.681375504E0,2.428917646E0
2.811610633E0,2.729389966E-1,8.714894295E0,2.366668463E0
2.813623081E0,2.777273953E-1,8.724471092E0,2.328361034E0
2.815635685E0,2.681505978E-1,8.748413086E0,2.294842243E0
2.817647508E0,2.777273953E-1,8.762778282E0,2.285265446E0
2.819659487E0,2.729389966E-1,8.734047890E0,2.328361034E0
2.821671362E0,2.729389966E-1,8.748413086E0,2.218227863E0
2.823683393E0,3.303998411E-1,8.762778282E0,2.002749681E0
2.825695581E0,3.447650373E-1,8.796297073E0,1.825578809E0
2.827707976E0,3.256114423E-1,8.791508675E0,1.830367208E0
2.829720528E0,2.968810201E-1,8.810662270E0,1.839944005E0
2.831732508E0,2.777273953E-1,8.839392662E0,1.873462796E0
2.833744591E0,2.777273953E-1,8.887276649E0,1.854309201E0
2.835755893E0,2.968810201E-1,8.906430244E0,1.768117905E0
2.837767456E0,3.064578176E-1,8.935160637E0,1.676539779E0
2.839779226E0,3.351882398E-1,8.949525833E0,1.595136881E0
2.841791049E0,3.112462163E-1,8.968679428E0,1.552041292E0
2.843803133E0,3.112462163E-1,8.992621422E0,1.508945584E0
2.845815424E0,3.256114423E-1,8.987833023E0,1.432331204E0
2.847827872E0,3.303998411E-1,8.997409821E0,1.370081902E0
2.849840528E0,3.064578176E-1,8.992621422E0,1.326986313E0
2.851853185E0,3.016694188E-1,8.973467827E0,1.312621117E0
2.853865997E0,2.825157940E-1,8.987833023E0,1.293467522E0
2.855878914E0,2.873041928E-1,8.978256226E0,1.298255920E0
2.857891935E0,3.256114423E-1,9.011775017E0,1.283890605E0
2.859905008E0,3.447650373E-1,9.030928612E0,1.240795016E0
2.861914331E0,3.591302633E-1,9.026140213E0,1.245583415E0
2.863923914E0,3.782838583E-1,9.006986618E0,1.259948611E0
2.865933862E0,4.118026793E-1,9.026140213E0,1.269525409E0
2.867944278E0,4.165911078E-1,9.030928612E0,1.250371814E0
2.869955164E0,4.357447028E-1,9.040505409E0,1.259948611E0
2.871966414E0,4.357447028E-1,9.026140213E0,1.245583415E0
2.873978237E0,4.453215301E-1,9.040505409E0,1.245583415E0
2.875990633E0,4.405331016E-1,9.045293808E0,1.240795016E0
2.878003549E0,4.501099288E-1,9.074024200E0,1.216853023E0
2.880016935E0,4.309563041E-1,9.112331390E0,1.188122630E0
2.882030528E0,4.118026793E-1,9.150638580E0,1.173757434E0
2.884044435E0,3.878606856E-1,9.155426979E0,1.164180517E0
2.886058601E0,3.639186621E-1,9.179368973E0,1.140238523E0
2.888073028E0,3.639186621E-1,9.212887764E0,1.106719732E0
2.890087508E0,3.495534360E-1,9.227252960E0,1.054047346E0
2.892101987E0,3.591302633E-1,9.251194954E0,9.774328470E-1
2.894114018E0,3.447650373E-1,9.265560150E0,9.343371987E-1
2.896126310E0,3.256114423E-1,9.246406555E0,8.960300088E-1
2.898138601E0,3.064578176E-1,9.246406555E0,8.768763542E-1
2.900149851E0,3.064578176E-1,9.236829758E0,8.577227592E-1
2.902161153E0,2.825157940E-1,9.251194954E0,8.577227592E-1
2.904172508E0,3.016694188E-1,9.279925346E0,8.433575630E-1
2.906182351E0,3.064578176E-1,9.313444138E0,8.146271110E-1
2.908192508E0,3.016694188E-1,9.323021889E0,8.002619147E-1
2.910202976E0,3.112462163E-1,9.332598686E0,7.763199210E-1
2.912213810E0,3.303998411E-1,9.337387085E0,7.571662664E-1
2.914225060E0,3.112462163E-1,9.313444138E0,7.428010702E-1
2.916236518E0,3.064578176E-1,9.313444138E0,8.098387122E-1
2.918248393E0,2.873041928E-1,9.308655739E0,8.864531517E-1
2.920260685E0,2.442085743E-1,9.289502144E0,9.678560495E-1
2.922273393E0,2.250549644E-1,9.294290543E0,9.582792521E-1
2.924286466E0,2.106897533E-1,9.255983353E0,9.151836038E-1
2.926299643E0,2.059013397E-1,9.246406555E0,8.194155097E-1
2.928313133E0,2.011129409E-1,9.232041359E0,7.140706778E-1
2.930326831E0,1.867477298E-1,9.222464561E0,6.183025837E-1
2.932340685E0,1.867477298E-1,9.184157372E0,5.506663918E-1
2.934354591E0,1.963245422E-1,9.188945770E0,4.740519226E-1
2.936369331E0,2.154781520E-1,9.222464561E0,4.357447028E-1
2.938376258E0,2.250549644E-1,9.227252960E0,3.926490843E-1
2.940383341E0,2.298433632E-1,9.246406555E0,3.351882398E-1
2.942390789E0,2.489969730E-1,9.279925346E0,2.777273953E-1
2.944398966E0,2.633621991E-1,9.299078941E0,1.819593310E-1
2.946407872E0,2.585737705E-1,9.284713745E0,1.149216816E-1
2.948417768E0,2.394201756E-1,9.275136948E0,6.703764945E-2
2.950428653E0,2.059013397E-1,9.294290543E0,5.746084079E-2
2.952440581E0,1.963245422E-1,9.318233490E0,9.097966552E-2
2.954453497E0,1.819593310E-1,9.342175484E0,9.576806426E-2
2.956467195E0,1.819593310E-1,9.361329079E0,5.746084079E-2
2.958481726E0,2.059013397E-1,9.356540680E0,9.576806426E-2
2.960496935E0,2.059013397E-1,9.375694275E0,1.484405100E-1
2.962512716E0,2.059013397E-1,9.342175484E0,1.197100878E-1
2.964528862E0,2.154781520E-1,9.308655739E0,8.619125932E-2
2.966545060E0,1.963245422E-1,9.279925346E0,3.830722719E-2
2.968561310E0,2.154781520E-1,9.313444138E0,4.788403213E-2
2.970575112E0,2.346317619E-1,9.327810287E0,9.576806426E-2
2.972587768E0,2.298433632E-1,9.342175484E0,1.244984865E-1
2.974599903E0,2.633621991E-1,9.370905876E0,1.915361285E-1
2.976606883E0,2.681505978E-1,9.375694275E0,2.537853718E-1
2.978614278E0,2.633621991E-1,9.399636269E0,3.303998411E-1
2.980622247E0,2.250549644E-1,9.394847870E0,3.926490843E-1
2.982630945E0,2.250549644E-1,9.380482674E0,4.261679053E-1
2.984640476E0,2.106897533E-1,9.370905876E0,4.261679053E-1
2.986650685E0,2.394201756E-1,9.356540680E0,4.070142806E-1
2.988661831E0,2.585737705E-1,9.351752281E0,3.447650373E-1
2.990673914E0,2.968810201E-1,9.351752281E0,2.873041928E-1
2.992686883E0,3.112462163E-1,9.342175484E0,1.628057212E-1
2.994700685E0,3.303998411E-1,9.356540680E0,4.309562966E-2
2.996715008E0,3.495534360E-1,9.346963882E0,-1.149216816E-1
2.998729956E0,3.830722570E-1,9.346963882E0,-2.729389966E-1
3.000745372E0,3.878606856E-1,9.346963882E0,-4.118026793E-1
3.002761101E0,3.878606856E-1,9.366117477E0,-5.704185367E-1
3.004776987E0,4.118026793E-1,9.394847870E0,-7.236474752E-1
3.006789122E0,4.501099288E-1,9.418789864E0,-9.151836038E-1
3.008801466E0,4.548983276E-1,9.437943459E0,-1.068412542E0
3.010813966E0,4.501099288E-1,9.476250648E0,-1.236006618E0
3.012826622E0,4.644751251E-1,9.466673851E0,-1.336563110E0
3.014839383E0,4.453215301E-1,9.476250648E0,-1.446696401E0
3.016850789E0,4.165911078E-1,9.471462250E0,-1.547252893E0
3.018862403E0,3.974374831E-1,9.461885452E0,-1.628655672E0
3.020874174E0,3.639186621E-1,9.471462250E0,-1.715445518E0
3.022886153E0,3.160346150E-1,9.461885452E0,-1.777694821E0
3.024898289E0,3.016694188E-1,9.461885452E0,-1.854309201E0
3.026910424E0,2.585737705E-1,9.461885452E0,-1.911770105E0
3.028922768E0,2.298433632E-1,9.442731857E0,-1.959654093E0
3.030935268E0,1.963245422E-1,9.418789864E0,-1.993172884E0
3.032947924E0,1.723825186E-1,9.409213066E0,-1.974019289E0
3.034960737E0,1.436520964E-1,9.399636269E0,-1.969230890E0
3.036972195E0,1.388636976E-1,9.390059471E0,-1.902193308E0
3.038983810E0,1.436520964E-1,9.380482674E0,-1.839944005E0
3.040995581E0,1.292868853E-1,9.390059471E0,-1.753752708E0
3.043007560E0,1.388636976E-1,9.385271072E0,-1.671751380E0
3.045019695E0,1.436520964E-1,9.385271072E0,-1.595136881E0
3.047031831E0,1.484405100E-1,9.380482674E0,-1.528099179E0
3.049044174E0,1.628057212E-1,9.351752281E0,-1.456273198E0
3.051056206E0,1.723825186E-1,9.346963882E0,-1.350928307E0
3.053068445E0,1.963245422E-1,9.323021889E0,-1.264737010E0
3.055080841E0,1.867477298E-1,9.308655739E0,-1.183334231E0
3.057093237E0,2.154781520E-1,9.313444138E0,-1.101931334E0
3.059105789E0,2.059013397E-1,9.327810287E0,-1.039682031E0
3.061118445E0,2.394201756E-1,9.337387085E0,-9.965864420E-1
3.063131206E0,2.681505978E-1,9.342175484E0,-1.006163239E0
3.065144018E0,3.016694188E-1,9.346963882E0,-1.020528436E0
3.067154539E0,3.351882398E-1,9.342175484E0,-1.020528436E0
3.069165268E0,3.639186621E-1,9.342175484E0,-9.774328470E-1
3.071176258E0,3.878606856E-1,9.370905876E0,-9.630676508E-1
3.073187560E0,4.165911078E-1,9.370905876E0,-9.726444483E-1
3.075199174E0,4.501099288E-1,9.399636269E0,-1.010951638E0
3.077210945E0,4.788403511E-1,9.423578262E0,-1.082777739E0
3.079223081E0,5.267243981E-1,9.447520256E0,-1.145026922E0
3.081235528E0,5.315127969E-1,9.471462250E0,-1.216853023E0
3.083248289E0,5.656301379E-1,9.481039047E0,-1.250371814E0
3.085261310E0,5.752069354E-1,9.485827446E0,-1.293467522E0
3.087274383E0,5.943605900E-1,9.490615845E0,-1.370081902E0
3.089287664E0,6.087257862E-1,9.495404243E0,-1.408389091E0
3.091299539E0,6.230909824E-1,9.500192642E0,-1.465849996E0
3.093311622E0,6.518214345E-1,9.485827446E0,-1.489791989E0
3.095323914E0,6.518214345E-1,9.452308655E0,-1.441908002E0
3.097336206E0,6.661866307E-1,9.428366661E0,-1.513733983E0
3.099348653E0,6.374561787E-1,9.394847870E0,-1.590348482E0
3.101361206E0,6.278793812E-1,9.370905876E0,-1.652597666E0
3.103373081E0,6.135141850E-1,9.390059471E0,-1.720233917E0
3.105384278E0,6.087257862E-1,9.418789864E0,-1.782483220E0
3.107395528E0,5.799953341E-1,9.461885452E0,-1.830367208E0
3.109407143E0,5.656301379E-1,9.466673851E0,-1.820790410E0
3.111418810E0,5.458779931E-1,9.471462250E0,-1.825578809E0
3.113430789E0,5.363011956E-1,9.495404243E0,-1.792060018E0
3.115443028E0,5.075707436E-1,9.481039047E0,-1.811213613E0
3.117455372E0,4.979939461E-1,9.490615845E0,-1.816002011E0
3.119467976E0,4.788403511E-1,9.457097054E0,-1.782483220E0
3.121480581E0,4.357447028E-1,9.423578262E0,-1.734599113E0
3.123493393E0,4.118026793E-1,9.404424667E0,-1.657386184E0
3.125506362E0,3.687070608E-1,9.414001465E0,-1.599925280E0
3.127519018E0,3.208230138E-1,9.404424667E0,-1.537676096E0
3.129531778E0,2.968810201E-1,9.385271072E0,-1.547252893E0
3.131543028E0,2.489969730E-1,9.366117477E0,-1.513733983E0
3.133554487E0,2.106897533E-1,9.346963882E0,-1.508945584E0
3.135566206E0,2.059013397E-1,9.356540680E0,-1.499368787E0
3.137578028E0,1.819593310E-1,9.342175484E0,-1.475426793E0
3.139590060E0,1.771709323E-1,9.361329079E0,-1.475426793E0
3.141602091E0,1.819593310E-1,9.361329079E0,-1.465849996E0
3.143614331E0,2.106897533E-1,9.370905876E0,-1.489791989E0
3.145626778E0,2.202665508E-1,9.390059471E0,-1.518522382E0
3.147639278E0,2.442085743E-1,9.380482674E0,-1.542464495E0
3.149651935E0,2.920926213E-1,9.399636269E0,-1.575983286E0
3.151663914E0,3.256114423E-1,9.404424667E0,-1.599925280E0
3.153676101E0,3.399766386E-1,9.423578262E0,-1.599925280E0
3.155688445E0,3.782838583E-1,9.471462250E0,-1.604713678E0
3.157700789E0,3.734954596E-1,9.495404243E0,-1.643020868E0
3.159713289E0,4.118026793E-1,9.519346237E0,-1.647809267E0
3.161724747E0,4.165911078E-1,9.548674583E0,-1.652597666E0
3.163736414E0,4.453215301E-1,9.543288231E0,-1.638232470E0
3.165748237E0,4.309563041E-1,9.548674583E0,-1.619078875E0
3.167760372E0,4.261679053E-1,9.548674583E0,-1.575983286E0
3.169772716E0,4.165911078E-1,9.528923035E0,-1.542464495E0
3.171785060E0,4.022258818E-1,9.504981041E0,-1.508945584E0
3.173797560E0,4.070142806E-1,9.509769440E0,-1.489791989E0
3.175810216E0,3.974374831E-1,9.485827446E0,-1.475426793E0
3.177822872E0,3.878606856E-1,9.490615845E0,-1.456273198E0
3.179835633E0,3.687070608E-1,9.481039047E0,-1.446696401E0
3.181846466E0,3.687070608E-1,9.495404243E0,-1.451484799E0
3.183857508E0,3.543418646E-1,9.495404243E0,-1.446696401E0
3.185868810E0,3.399766386E-1,9.500192642E0,-1.456273198E0
3.187880424E0,3.303998411E-1,9.500192642E0,-1.470638394E0
3.189892351E0,3.160346150E-1,9.509769440E0,-1.485003591E0
3.191904383E0,3.064578176E-1,9.533711433E0,-1.508945584E0
3.193916726E0,3.112462163E-1,9.548674583E0,-1.537676096E0
3.195929331E0,2.729389966E-1,9.558251381E0,-1.552041292E0
3.197942247E0,2.729389966E-1,9.563039780E0,-1.590348482E0
3.199955372E0,2.442085743E-1,9.567828178E0,-1.614290476E0
3.201968081E0,2.298433632E-1,9.567828178E0,-1.657386184E0
3.203980945E0,2.106897533E-1,9.577404976E0,-1.686715126E0
3.205993914E0,1.963245422E-1,9.563039780E0,-1.715445518E0
3.208006987E0,1.675941199E-1,9.558251381E0,-1.748964310E0
3.210020060E0,1.675941199E-1,9.553462982E0,-1.787271619E0
3.212028393E0,1.963245422E-1,9.548674583E0,-1.839944005E0
3.214037039E0,1.675941199E-1,9.548674583E0,-1.902193308E0
3.216046153E0,1.867477298E-1,9.553462982E0,-1.940500498E0
3.218055893E0,2.011129409E-1,9.563039780E0,-1.959654093E0
3.220066258E0,2.059013397E-1,9.567828178E0,-1.978807688E0
3.222077299E0,1.963245422E-1,9.577404976E0,-1.997961283E0
3.224089018E0,1.915361285E-1,9.572616577E0,-1.988384485E0
3.226101414E0,1.915361285E-1,9.577404976E0,-1.993172884E0
3.228114435E0,2.154781520E-1,9.572616577E0,-1.988384485E0
3.230128028E0,2.154781520E-1,9.591770172E0,-1.959654093E0
3.232142143E0,2.059013397E-1,9.606135368E0,-1.930923700E0
3.234156674E0,2.202665508E-1,9.577404976E0,-1.935712099E0
3.236171310E0,2.011129409E-1,9.582193375E0,-1.902193308E0
3.238186153E0,1.963245422E-1,9.543288231E0,-1.902193308E0
3.240201049E0,2.011129409E-1,9.548674583E0,-1.916558504E0
3.242215945E0,2.011129409E-1,9.524134636E0,-1.911770105E0
3.244227560E0,2.202665508E-1,9.519346237E0,-1.940500498E0
3.246234903E0,2.106897533E-1,9.514557838E0,-1.950077295E0
3.248242612E0,2.202665508E-1,9.538499832E0,-1.988384485E0
3.250250841E0,2.106897533E-1,9.543288231E0,-2.012326479E0
3.252259799E0,2.298433632E-1,9.563039780E0,-2.050633669E0
3.254269539E0,2.106897533E-1,9.591770172E0,-2.050633669E0
3.256280008E0,2.202665508E-1,9.586981773E0,-2.098517895E0
3.258291362E0,2.202665508E-1,9.601346970E0,-2.117671490E0
3.260303549E0,2.442085743E-1,9.606135368E0,-2.117671490E0
3.262316570E0,2.585737705E-1,9.615712166E0,-2.160767078E0
3.264330320E0,2.873041928E-1,9.596558571E0,-2.184709072E0
3.266344643E0,3.208230138E-1,9.586981773E0,-2.208651066E0
3.268359383E0,3.351882398E-1,9.606135368E0,-2.237381458E0
3.270374383E0,3.734954596E-1,9.586981773E0,-2.246958256E0
3.272389539E0,4.118026793E-1,9.591770172E0,-2.266111851E0
3.274404695E0,4.453215301E-1,9.601346970E0,-2.275688648E0
3.276418081E0,4.405331016E-1,9.601346970E0,-2.266111851E0
3.278431570E0,4.405331016E-1,9.634865761E0,-2.275688648E0
3.280445112E0,4.501099288E-1,9.634865761E0,-2.246958256E0
3.282458653E0,4.501099288E-1,9.634865761E0,-2.246958256E0
3.284470685E0,4.501099288E-1,9.620500565E0,-2.251746655E0
3.286478341E0,4.644751251E-1,9.625288963E0,-2.251746655E0
3.288486362E0,4.501099288E-1,9.610923767E0,-2.251746655E0
3.290494851E0,4.213795066E-1,9.601346970E0,-2.223016262E0
3.292503966E0,4.213795066E-1,9.606135368E0,-2.199074268E0
3.294513810E0,4.022258818E-1,9.610923767E0,-2.141613483E0
3.296524278E0,4.022258818E-1,9.601346970E0,-2.117671490E0
3.298535581E0,4.070142806E-1,9.606135368E0,-2.026691675E0
3.300547716E0,4.022258818E-1,9.596558571E0,-1.964442492E0
3.302560633E0,4.070142806E-1,9.596558571E0,-1.887827992E0
3.304574278E0,4.022258818E-1,9.567828178E0,-1.825578809E0
3.306588393E0,4.022258818E-1,9.582193375E0,-1.777694821E0
3.308603081E0,3.782838583E-1,9.563039780E0,-1.701080322E0
3.310618185E0,3.734954596E-1,9.543288231E0,-1.623867273E0
3.312633601E0,3.639186621E-1,9.548674583E0,-1.556829691E0
3.314649174E0,3.447650373E-1,9.548674583E0,-1.494580388E0
3.316660997E0,3.447650373E-1,9.543288231E0,-1.480215192E0
3.318673028E0,3.447650373E-1,9.533711433E0,-1.432331204E0
3.320685164E0,3.351882398E-1,9.543288231E0,-1.394023895E0
3.322697456E0,3.591302633E-1,9.524134636E0,-1.389235497E0
3.324709903E0,3.782838583E-1,9.538499832E0,-1.370081902E0
3.326721726E0,4.070142806E-1,9.567828178E0,-1.370081902E0
3.328733706E0,4.261679053E-1,9.591770172E0,-1.365293503E0
3.330745841E0,4.261679053E-1,9.572616577E0,-1.403600693E0
3.332758133E0,4.596867263E-1,9.577404976E0,-1.441908002E0
3.334770581E0,4.596867263E-1,9.577404976E0,-1.523310781E0
3.336782612E0,4.501099288E-1,9.577404976E0,-1.599925280E0
3.338794851E0,4.740519226E-1,9.596558571E0,-1.705868721E0
3.340807247E0,4.692635238E-1,9.591770172E0,-1.796848416E0
3.342819747E0,4.357447028E-1,9.591770172E0,-1.849520802E0
3.344832351E0,4.070142806E-1,9.558251381E0,-1.926135302E0
3.346843237E0,3.830722570E-1,9.533711433E0,-1.969230890E0
3.348854331E0,3.878606856E-1,9.504981041E0,-2.026691675E0
3.350865685E0,3.830722570E-1,9.514557838E0,-2.098517895E0
3.352877299E0,4.309563041E-1,9.500192642E0,-2.141613483E0
3.354889174E0,4.501099288E-1,9.514557838E0,-2.179920673E0
3.356901206E0,4.692635238E-1,9.471462250E0,-2.160767078E0
3.358913549E0,4.548983276E-1,9.399636269E0,-2.127248287E0
3.360926153E0,4.501099288E-1,9.351752281E0,-2.041056871E0
3.362938966E0,4.453215301E-1,9.284713745E0,-1.930923700E0
3.364951935E0,4.261679053E-1,9.232041359E0,-1.792060018E0
3.366964903E0,4.022258818E-1,9.174580574E0,-1.638232470E0
3.368978028E0,3.878606856E-1,9.131484985E0,-1.446696401E0
3.370991206E0,3.639186621E-1,9.121908188E0,-1.283890605E0
3.373004435E0,3.543418646E-1,9.107542992E0,-1.111508131E0
3.375017560E0,3.351882398E-1,9.126696587E0,-9.582792521E-1
3.377025372E0,3.064578176E-1,9.150638580E0,-7.619546652E-1
3.379033549E0,3.016694188E-1,9.169792175E0,-6.183025837E-1
3.381042195E0,2.873041928E-1,9.174580574E0,-4.884171486E-1
3.383051466E0,2.489969730E-1,9.169792175E0,-3.495534360E-1
3.385061414E0,2.298433632E-1,9.136273384E0,-2.394201756E-1
3.387071935E0,1.867477298E-1,9.093177795E0,-1.053448766E-1
3.389083237E0,1.436520964E-1,9.074024200E0,1.436521020E-2
3.391095320E0,1.005564705E-1,9.050082207E0,1.005564705E-1
3.393108185E0,3.351882473E-2,9.040505409E0,1.580173075E-1
3.395121570E0,-1.436521020E-2,9.040505409E0,2.250549644E-1
3.397135424E0,-7.182604820E-2,9.059659004E0,3.303998411E-1
3.399149851E0,-9.097966552E-2,9.054870605E0,4.261679053E-1
3.401164695E0,-1.149216816E-1,9.050082207E0,4.979939461E-1
3.403179851E0,-1.436520964E-1,9.054870605E0,6.039373875E-1
3.405195164E0,-1.484405100E-1,9.030928612E0,7.092822790E-1
3.407208237E0,-1.675941199E-1,9.035717010E0,8.098387122E-1
3.409221414E0,-2.059013397E-1,9.016563416E0,8.816647530E-1
3.411234643E0,-2.106897533E-1,9.002198219E0,9.247604012E-1
3.413247924E0,-2.489969730E-1,8.973467827E0,9.630676508E-1
3.415260528E0,-2.873041928E-1,8.939949036E0,1.015740037E0
3.417269226E0,-3.256114423E-1,8.916007042E0,1.025316834E0
3.419278185E0,-3.591302633E-1,8.868123055E0,1.058835745E0
3.421287508E0,-4.118026793E-1,8.858546257E0,1.020528436E0
3.423297299E0,-4.405331016E-1,8.825027466E0,9.439139962E-1
3.425307612E0,-4.261679053E-1,8.805873871E0,8.720879555E-1
3.427318393E0,-4.788403511E-1,8.777143478E0,7.763199210E-1
3.429329851E0,-4.979939461E-1,8.767566681E0,7.188590765E-1
3.431341935E0,-5.458779931E-1,8.753201485E0,6.518214345E-1
3.433354643E0,-5.602431893E-1,8.762778282E0,5.458779931E-1
3.435367872E0,-5.554547906E-1,8.762778282E0,4.165911078E-1
3.437382403E0,-5.602431893E-1,8.753201485E0,2.873041928E-1
3.439397091E0,-5.506663918E-1,8.729259491E0,1.963245422E-1
3.441411831E0,-5.267243981E-1,8.700529099E0,1.580173075E-1
3.443426726E0,-4.884171486E-1,8.681375504E0,8.619125932E-2
3.445441674E0,-4.453215301E-1,8.681375504E0,4.788403213E-2
3.447451622E0,-4.022258818E-1,8.667010307E0,4.788403213E-2
3.449461778E0,-3.208230138E-1,8.676587105E0,6.703764945E-2
3.451471987E0,-2.681505978E-1,8.667010307E0,1.244984865E-1
3.453482560E0,-2.059013397E-1,8.662221909E0,2.059013397E-1
3.455493549E0,-1.101332754E-1,8.671798706E0,3.112462163E-1
3.457504851E0,-4.788403399E-3,8.681375504E0,4.644751251E-1
3.459516622E0,8.140286058E-2,8.700529099E0,6.326677799E-1
3.461528653E0,1.915361285E-1,8.710105896E0,8.577227592E-1
3.463541153E0,2.681505978E-1,8.734047890E0,1.058835745E0
3.465554070E0,3.926490843E-1,8.767566681E0,1.269525409E0
3.467567195E0,4.596867263E-1,8.781931877E0,1.494580388E0
3.469580633E0,5.315127969E-1,8.825027466E0,1.696291924E0
3.471594122E0,5.991489887E-1,8.839392662E0,1.945288897E0
3.473607820E0,6.326677799E-1,8.844181061E0,2.155978680E0
3.475621622E0,6.230909824E-1,8.858546257E0,2.385822058E0
3.477634435E0,5.991489887E-1,8.839392662E0,2.601300240E0
3.479647299E0,5.410895944E-1,8.781931877E0,2.802412987E0
3.481657195E0,4.979939461E-1,8.734047890E0,2.970605850E0
3.483667351E0,4.213795066E-1,8.705317497E0,3.114257812E0
3.485677820E0,3.351882398E-1,8.647856712E0,3.233968019E0
3.487688549E0,2.873041928E-1,8.580819130E0,3.344101191E0
3.489699695E0,2.011129409E-1,8.518569946E0,3.492541790E0
3.491711101E0,1.244984865E-1,8.461109161E0,3.621828556E0
3.493722976E0,5.746084079E-2,8.393472672E0,3.832518339E0
3.495735320E0,-5.746084079E-2,8.331223488E0,4.015076160E0
3.497747976E0,-1.867477298E-1,8.268974304E0,4.177882195E0
3.499760997E0,-3.208230138E-1,8.192359924E0,4.345476151E0
3.501774174E0,-4.740519226E-1,8.077438354E0,4.446032524E0
3.503787664E0,-6.087257862E-1,8.005612373E0,4.608838081E0
3.505801466E0,-7.332242727E-1,7.938574314E0,4.752490520E0
3.507815476E0,-8.529343605E-1,7.857171535E0,4.915296078E0
3.509829591E0,-9.582792521E-1,7.770980358E0,5.006275654E0
3.511839331E0,-1.063624144E0,7.689577103E0,5.102642536E0
3.513849331E0,-1.154603720E0,7.627327919E0,5.198410511E0
3.515859643E0,-1.240795016E0,7.565078735E0,5.279813290E0
3.517870216E0,-1.303044319E0,7.512406349E0,5.366004467E0
3.519881206E0,-1.355716705E0,7.483675957E0,5.447407246E0
3.521892456E0,-1.379658699E0,7.431003571E0,5.543175697E0
3.523904226E0,-1.379658699E0,7.421426773E0,5.643732071E0
3.525916466E0,-1.370081902E0,7.407061577E0,5.710769653E0
3.527929226E0,-1.350928307E0,7.416638374E0,5.715558052E0
3.529942403E0,-1.298255920E0,7.421426773E0,5.672462463E0
3.531955789E0,-1.240795016E0,7.426215172E0,5.615001678E0
3.533969487E0,-1.192911029E0,7.469310760E0,5.519233704E0
3.535983445E0,-1.135450125E0,7.493252754E0,5.442618847E0
3.537997403E0,-1.077989340E0,7.521983147E0,5.356427670E0
3.540011414E0,-1.044470549E0,7.545925140E0,5.251082897E0
3.542021831E0,-1.006163239E0,7.541136742E0,5.164891720E0
3.544032456E0,-9.487023950E-1,7.541136742E0,5.054758549E0
3.546043341E0,-9.103952050E-1,7.541136742E0,4.944026470E0
3.548054383E0,-8.337807655E-1,7.560290337E0,4.809951305E0
3.550065789E0,-7.523778677E-1,7.569867134E0,4.666299343E0
3.552077612E0,-6.661866307E-1,7.603385925E0,4.532223701E0
3.554089799E0,-5.458779931E-1,7.636904716E0,4.412513733E0
3.556102351E0,-4.405331016E-1,7.675211906E0,4.307168961E0
3.558115268E0,-3.208230138E-1,7.713519096E0,4.206612587E0
3.560128445E0,-1.819593310E-1,7.742249966E0,4.134786129E0
3.562141883E0,-6.224924326E-2,7.780557156E0,4.091690540E0
3.564155476E0,4.309562966E-2,7.838017941E0,4.082113743E0
3.566167820E0,1.675941199E-1,7.876325130E0,4.086902142E0
3.568180372E0,2.777273953E-1,7.914632320E0,4.067748547E0
3.570193028E0,3.591302633E-1,7.957727909E0,4.029441357E0
3.572205789E0,4.740519226E-1,7.991246700E0,4.062960148E0
3.574218653E0,5.315127969E-1,8.024765968E0,4.134786129E0
3.576227976E0,5.410895944E-1,8.043919563E0,4.292803764E0
3.578237768E0,5.602431893E-1,8.067861557E0,4.431667328E0
3.580247924E0,6.135141850E-1,8.106168747E0,4.589684486E0
3.582258497E0,8.577227592E-1,8.461109161E0,5.524022102E0
3.584269539E0,9.582792521E-1,8.427590370E0,4.881777287E0
3.586280893E0,9.774328470E-1,8.283339500E0,4.278438568E0
3.588292768E0,9.056068063E-1,8.134899139E0,4.211400986E0
3.590305164E0,8.242039084E-1,7.991246700E0,4.297592163E0
3.592318028E0,7.858967185E-1,7.905055523E0,4.345476151E0
3.594331310E0,7.475894690E-1,7.876325130E0,4.302380562E0
3.596344747E0,6.949170232E-1,7.833229542E0,4.230554581E0
3.598358341E0,6.230909824E-1,7.790133953E0,4.230554581E0
3.600372247E0,5.027823448E-1,7.742249966E0,4.283226967E0
3.602386206E0,4.357447028E-1,7.680000305E0,4.441244125E0
3.604397976E0,3.256114423E-1,7.579443932E0,4.671087742E0
3.606409747E0,2.442085743E-1,7.474099159E0,4.891354084E0
3.608421778E0,1.580173075E-1,7.349600792E0,5.117007732E0
3.610434018E0,1.005564705E-1,7.267599106E0,5.366004467E0
3.612446466E0,4.309562966E-2,7.186196327E0,5.567117691E0
3.614459070E0,0.000000000E0,7.119158745E0,5.763442039E0
3.616471674E0,-2.873042040E-2,7.061697960E0,5.916670799E0
3.618484435E0,-6.703764945E-2,6.994660378E0,6.031592846E0
3.620497299E0,-8.140286058E-2,6.918045998E0,6.185420036E0
3.622510268E0,-1.197100878E-1,6.870162010E0,6.295553207E0
3.624523237E0,-1.628057212E-1,6.803123951E0,6.410475254E0
3.626532247E0,-1.867477298E-1,6.750451565E0,6.525396824E0
3.628541570E0,-1.915361285E-1,6.707355976E0,6.592434406E0
3.630551258E0,-2.250549644E-1,6.640318394E0,6.683413982E0
3.632561466E0,-2.442085743E-1,6.592434406E0,6.774393559E0
3.634572195E0,-2.681505978E-1,6.534973621E0,6.855796337E0
3.636583289E0,-3.112462163E-1,6.458359241E0,6.922834396E0
3.638595008E0,-3.208230138E-1,6.400898457E0,6.937199593E0
3.640607299E0,-3.639186621E-1,6.353013992E0,6.956353188E0
3.642620164E0,-3.734954596E-1,6.305130005E0,6.965929985E0
3.644633497E0,-4.022258818E-1,6.266822815E0,6.989871979E0
3.646647039E0,-4.070142806E-1,6.257246017E0,6.994660378E0
3.648660997E0,-4.070142806E-1,6.228515625E0,6.970718384E0
3.650675216E0,-3.974374831E-1,6.194996834E0,6.903680801E0
3.652689643E0,-3.926490843E-1,6.146514416E0,6.841431141E0
3.654704122E0,-3.974374831E-1,6.074688435E0,6.774393559E0
3.656714331E0,-4.213795066E-1,6.007650852E0,6.688202381E0
3.658724799E0,-4.309563041E-1,5.964554787E0,6.630741596E0
3.660735581E0,-4.788403511E-1,5.907094002E0,6.568492413E0
3.662746726E0,-4.884171486E-1,5.878363609E0,6.501454830E0
3.664758237E0,-5.123591423E-1,5.863998413E0,6.448782444E0
3.666769956E0,-5.363011956E-1,5.859210014E0,6.424840450E0
3.668782091E0,-5.315127969E-1,5.863998413E0,6.439205647E0
3.670794591E0,-5.363011956E-1,5.849633217E0,6.415263653E0
3.672807456E0,-5.363011956E-1,5.849633217E0,6.396110058E0
3.674820633E0,-5.171475410E-1,5.806537628E0,6.453570843E0
3.676833862E0,-5.219359994E-1,5.768230438E0,6.477512836E0
3.678847299E0,-4.836287498E-1,5.715558052E0,6.515820026E0
3.680860841E0,-4.501099288E-1,5.701192856E0,6.549338818E0
3.682874487E0,-4.070142806E-1,5.667674065E0,6.563704014E0
3.684888133E0,-3.543418646E-1,5.615001678E0,6.563704014E0
3.686897143E0,-3.447650373E-1,5.591059685E0,6.573280811E0
3.688906414E0,-2.968810201E-1,5.547964096E0,6.625953197E0
3.690916049E0,-2.777273953E-1,5.524022102E0,6.664260387E0
3.692926153E0,-2.873041928E-1,5.480926037E0,6.736086369E0
3.694936778E0,-2.489969730E-1,5.456984043E0,6.812700748E0
3.696947768E0,-1.963245422E-1,5.433042049E0,6.922834396E0
3.698959383E0,-1.771709323E-1,5.404311657E0,7.056909561E0
3.700971570E0,-1.197100878E-1,5.394734859E0,7.200561523E0
3.702984331E0,-6.224924326E-2,5.375581264E0,7.383119583E0
3.704997612E0,-3.351882473E-2,5.380369663E0,7.569867134E0
3.707011153E0,2.873042040E-2,5.399523258E0,7.794922352E0
3.709025112E0,8.140286058E-2,5.389946461E0,7.948151112E0
3.711039383E0,1.532289088E-1,5.404311657E0,8.125322342E0
3.713053862E0,2.106897533E-1,5.409100056E0,8.264185905E0
3.715068445E0,2.585737705E-1,5.399523258E0,8.398261070E0
3.717079018E0,2.633621991E-1,5.356427670E0,8.489839554E0
3.719089851E0,2.825157940E-1,5.303755283E0,8.566453934E0
3.721100945E0,3.016694188E-1,5.255871296E0,8.700529099E0
3.723112351E0,2.825157940E-1,5.217564106E0,8.781931877E0
3.725124070E0,2.681505978E-1,5.203198910E0,8.872911453E0
3.727135945E0,2.681505978E-1,5.164891720E0,8.968679428E0
3.729148185E0,2.585737705E-1,5.136161327E0,9.064447403E0
3.731160737E0,2.681505978E-1,5.112219334E0,9.117119789E0
3.733173445E0,2.585737705E-1,5.069123745E0,9.150638580E0
3.735186414E0,2.537853718E-1,5.059546947E0,9.169792175E0
3.737199383E0,2.106897533E-1,5.001487255E0,9.155426979E0
3.739212508E0,1.915361285E-1,4.934449673E0,9.131484985E0
3.741225737E0,1.436520964E-1,4.862623692E0,9.121908188E0
3.743239070E0,1.292868853E-1,4.776432514E0,9.059659004E0
3.745252456E0,7.661445439E-2,4.690241337E0,9.002198219E0
3.747261310E0,5.746084079E-2,4.608838081E0,8.916007042E0
3.749270476E0,4.309562966E-2,4.532223701E0,8.801085472E0
3.751280060E0,9.576806799E-3,4.446032524E0,8.671798706E0
3.753290164E0,-1.436521020E-2,4.369418144E0,8.532935143E0
3.755300841E0,-3.351882473E-2,4.302380562E0,8.427590370E0
3.757311935E0,-3.830722719E-2,4.254496574E0,8.336011887E0
3.759323653E0,-4.309562966E-2,4.201824188E0,8.268974304E0
3.761335945E0,-5.267243832E-2,4.158728123E0,8.230667114E0
3.763348810E0,-5.267243832E-2,4.115632534E0,8.201936722E0
3.765361987E0,-6.703764945E-2,4.072536945E0,8.158841133E0
3.767376778E0,-5.746084079E-2,3.991134167E0,8.087015152E0
3.769391674E0,-5.267243832E-2,3.928286552E0,8.101380348E0
3.771406570E0,-6.224924326E-2,3.846883535E0,8.087015152E0
3.773421570E0,-6.703764945E-2,3.775057554E0,8.091803551E0
3.775436570E0,-6.224924326E-2,3.679289579E0,8.096591949E0
3.777443497E0,-3.830722719E-2,3.626616955E0,8.168417931E0
3.779450789E0,-1.915361360E-2,3.621828556E0,8.235455513E0
3.781458445E0,1.915361360E-2,3.593098164E0,8.302493095E0
3.783466883E0,1.436521020E-2,3.602674961E0,8.345588684E0
3.785476153E0,3.351882473E-2,3.578732967E0,8.355165482E0
3.787486258E0,8.619125932E-2,3.593098164E0,8.398261070E0
3.789497351E0,1.244984865E-1,3.607463360E0,8.461109161E0
3.791509226E0,1.628057212E-1,3.631405354E0,8.561665535E0
3.793522039E0,1.867477298E-1,3.597886562E0,8.681375504E0
3.795535737E0,2.011129409E-1,3.617040157E0,8.801085472E0
3.797550112E0,2.298433632E-1,3.593098164E0,8.925583839E0
3.799565164E0,2.489969730E-1,3.583521366E0,9.035717010E0
3.801580528E0,2.825157940E-1,3.578732967E0,9.188945770E0
3.803596310E0,3.112462163E-1,3.583521366E0,9.294290543E0
3.805612299E0,3.447650373E-1,3.602674961E0,9.380482674E0
3.807627039E0,3.639186621E-1,3.573944569E0,9.409213066E0
3.809641778E0,3.782838583E-1,3.573944569E0,9.423578262E0
3.811650008E0,3.878606856E-1,3.559579372E0,9.409213066E0
3.813658549E0,3.782838583E-1,3.545214176E0,9.375694275E0
3.815667560E0,3.639186621E-1,3.487753391E0,9.313444138E0
3.817677039E0,3.782838583E-1,3.449446201E0,9.212887764E0
3.819687143E0,3.495534360E-1,3.415927172E0,9.088389397E0
3.821697768E0,3.447650373E-1,3.353677988E0,8.968679428E0
3.823709122E0,3.208230138E-1,3.301005602E0,8.834604263E0
3.825721206E0,3.351882398E-1,3.224391222E0,8.695740700E0
3.827733862E0,3.447650373E-1,3.171718597E0,8.580819130E0
3.829747195E0,3.782838583E-1,3.085527420E0,8.432378769E0
3.831760945E0,3.687070608E-1,3.047220230E0,8.268974304E0
3.833775216E0,3.734954596E-1,2.994547844E0,8.120533943E0
3.835790008E0,3.591302633E-1,2.956240654E0,7.976881504E0
3.837805112E0,3.351882398E-1,2.903568029E0,7.890690327E0
3.839820424E0,3.208230138E-1,2.874837637E0,7.823652744E0
3.841832299E0,2.920926213E-1,2.860472441E0,7.747038364E0
3.843844331E0,2.873041928E-1,2.817376852E0,7.684788704E0
3.845856518E0,2.633621991E-1,2.768894196E0,7.660846710E0
3.847869018E0,2.442085743E-1,2.697068214E0,7.680000305E0
3.849881674E0,2.154781520E-1,2.620453835E0,7.756615162E0
3.851892820E0,2.011129409E-1,2.562992811E0,7.814075947E0
3.853904174E0,1.867477298E-1,2.462436438E0,7.928997517E0
3.855915737E0,1.675941199E-1,2.390610456E0,8.048707962E0
3.857927403E0,1.532289088E-1,2.328361034E0,8.125322342E0
3.859939331E0,1.771709323E-1,2.285265446E0,8.249820709E0
3.861951310E0,2.298433632E-1,2.213439465E0,8.340800285E0
3.863963601E0,2.729389966E-1,2.179920673E0,8.427590370E0
3.865976153E0,3.160346150E-1,2.146401882E0,8.532935143E0
3.867988966E0,3.543418646E-1,2.117671490E0,8.599972725E0
3.870001935E0,3.830722570E-1,2.108094692E0,8.638279915E0
3.872014747E0,4.165911078E-1,2.074575663E0,8.734047890E0
3.874027716E0,4.357447028E-1,2.069787264E0,8.839392662E0
3.876040789E0,4.596867263E-1,2.036268473E0,8.925583839E0
3.878053966E0,4.644751251E-1,2.026691675E0,9.006986618E0
3.880067143E0,4.692635238E-1,1.997961283E0,9.121908188E0
3.882075476E0,4.884171486E-1,1.974019289E0,9.241618156E0
3.884084122E0,4.979939461E-1,1.954865694E0,9.327810287E0
3.886092976E0,4.979939461E-1,1.935712099E0,9.414001465E0
3.888102456E0,4.884171486E-1,1.916558504E0,9.519346237E0
3.890112560E0,5.027823448E-1,1.906981707E0,9.620500565E0
3.892123393E0,5.075707436E-1,1.906981707E0,9.716269493E0
3.894134956E0,4.836287498E-1,1.911770105E0,9.802460670E0
3.896147039E0,4.836287498E-1,1.892616391E0,9.869498253E0
3.898159643E0,4.788403511E-1,1.878251195E0,9.922170639E0
3.900172924E0,4.788403511E-1,1.859097600E0,9.965266228E0
3.902186831E0,4.548983276E-1,1.816002011E0,1.001793861E1
3.904201258E0,4.261679053E-1,1.772906303E0,1.004666901E1
3.906215893E0,4.165911078E-1,1.725022316E0,1.007539940E1
3.908230841E0,3.830722570E-1,1.666962981E0,1.013286018E1
3.910245945E0,3.878606856E-1,1.619078875E0,1.020947456E1
3.912261101E0,3.878606856E-1,1.580771685E0,1.031003094E1
3.914274903E0,4.022258818E-1,1.528099179E0,1.038185692E1
3.916285060E0,3.878606856E-1,1.485003591E0,1.048241329E1
3.918295372E0,4.453215301E-1,1.441908002E0,1.051593208E1
3.920305841E0,4.740519226E-1,1.398812294E0,1.051593208E1
3.922316570E0,4.836287498E-1,1.350928307E0,1.047283649E1
3.924327560E0,5.027823448E-1,1.307832718E0,1.046804810E1
3.926338653E0,4.788403511E-1,1.240795016E0,1.042016411E1
3.928350164E0,4.596867263E-1,1.173757434E0,1.039622211E1
3.930361987E0,4.836287498E-1,1.097142935E0,1.041058731E1
3.932374122E0,5.123591423E-1,1.058835745E0,1.042974091E1
3.934386414E0,5.315127969E-1,1.001374841E0,1.043931770E1
3.936398862E0,5.656301379E-1,9.774328470E-1,1.042974091E1
3.938411466E0,5.943605900E-1,9.534908533E-1,1.045368290E1
3.940424383E0,6.470330358E-1,9.582792521E-1,1.048241329E1
3.942437560E0,6.901286244E-1,9.582792521E-1,1.051114368E1
3.944450945E0,6.997054219E-1,9.774328470E-1,1.054945087E1
3.946464487E0,7.284358740E-1,1.015740037E0,1.056381607E1
3.948478133E0,7.428010702E-1,1.034893632E0,1.058775806E1
3.950491778E0,7.428010702E-1,1.063624144E0,1.057339287E1
3.952505424E0,7.332242727E-1,1.116296530E0,1.061648846E1
3.954517351E0,7.044938207E-1,1.135450125E0,1.065958405E1
3.956525581E0,6.853402257E-1,1.168969035E0,1.069849014E1
3.958534122E0,6.613982320E-1,1.145026922E0,1.073679733E1
3.960542872E0,6.374561787E-1,1.159392118E0,1.080862331E1
3.962552195E0,5.799953341E-1,1.140238523E0,1.091875648E1
3.964562195E0,5.554547906E-1,1.130661726E0,1.104325581E1
3.966572716E0,5.027823448E-1,1.135450125E0,1.122042656E1
3.968584018E0,4.788403511E-1,1.149815321E0,1.137365532E1
3.970596101E0,4.788403511E-1,1.164180517E0,1.149336529E1
3.972608966E0,4.740519226E-1,1.173757434E0,1.157476807E1
3.974622508E0,4.644751251E-1,1.188122630E0,1.165138245E1
3.976636466E0,4.884171486E-1,1.183334231E0,1.168968964E1
3.978650945E0,5.171475410E-1,1.207276225E0,1.172799683E1
3.980665789E0,5.506663918E-1,1.188122630E0,1.176151562E1
3.982680945E0,5.752069354E-1,1.197699428E0,1.177588081E1
3.984696206E0,5.991489887E-1,1.178545833E0,1.177588081E1
3.986707456E0,6.087257862E-1,1.164180517E0,1.177109241E1
3.988718914E0,6.039373875E-1,1.135450125E0,1.179024601E1
3.990730581E0,6.278793812E-1,1.130661726E0,1.179024601E1
3.992742508E0,6.326677799E-1,1.092354536E0,1.182915211E1
3.994754695E0,6.278793812E-1,1.077989340E0,1.187703609E1
3.996766987E0,6.422445774E-1,1.054047346E0,1.189618969E1
3.998779487E0,6.853402257E-1,1.039682031E0,1.192970848E1
4.000792143E0,7.092822790E-1,1.020528436E0,1.198238087E1
4.002804956E0,7.380126715E-1,9.917980433E-1,1.200632286E1
4.004817872E0,7.428010702E-1,1.006163239E0,1.204463005E1
4.006829435E0,7.763199210E-1,9.726444483E-1,1.204941845E1
4.008841206E0,7.954735160E-1,9.822212458E-1,1.203984165E1
4.010853185E0,8.002619147E-1,9.822212458E-1,1.204941845E1
4.012865372E0,8.002619147E-1,9.582792521E-1,1.204463005E1
4.014877716E0,7.858967185E-1,9.534908533E-1,1.202068806E1
4.016890060E0,7.811083198E-1,9.439139962E-1,1.203026485E1
4.018902560E0,7.619546652E-1,9.295488000E-1,1.205420685E1
4.020915164E0,7.428010702E-1,9.343371987E-1,1.203026485E1
4.022927872E0,7.284358740E-1,9.295488000E-1,1.197280407E1
4.024940633E0,7.284358740E-1,9.151836038E-1,1.189140129E1
4.026950945E0,6.997054219E-1,9.056068063E-1,1.184830570E1
4.028961466E0,6.805518270E-1,9.056068063E-1,1.178066921E1
4.030972247E0,6.661866307E-1,8.960300088E-1,1.173278522E1
4.032983393E0,6.278793812E-1,8.864531517E-1,1.167532444E1
4.034994851E0,6.087257862E-1,8.672995567E-1,1.163222885E1
4.037006466E0,5.847837925E-1,8.433575630E-1,1.156997967E1
4.039018497E0,5.602431893E-1,8.385691643E-1,1.150294209E1
4.041030893E0,5.602431893E-1,8.433575630E-1,1.145026970E1
4.043043653E0,5.171475410E-1,8.242039084E-1,1.137365532E1
4.045056674E0,5.410895944E-1,8.098387122E-1,1.133055973E1
4.047069747E0,5.363011956E-1,8.146271110E-1,1.124436855E1
4.049083028E0,5.410895944E-1,7.906851172E-1,1.117733097E1
4.051096466E0,5.506663918E-1,7.954735160E-1,1.109113979E1
4.053110008E0,5.554547906E-1,7.906851172E-1,1.100015926E1
4.055123601E0,5.602431893E-1,7.858967185E-1,1.096185207E1
4.057133237E0,5.752069354E-1,7.811083198E-1,1.093312168E1
4.059143133E0,6.039373875E-1,7.858967185E-1,1.092833328E1
4.061153341E0,6.135141850E-1,7.906851172E-1,1.095706367E1
4.063163966E0,6.422445774E-1,7.811083198E-1,1.098100567E1
4.065175008E0,6.566098332E-1,7.858967185E-1,1.099537086E1
4.067186362E0,6.613982320E-1,7.858967185E-1,1.103846741E1
4.069198237E0,6.566098332E-1,7.715315223E-1,1.106240940E1
4.071210581E0,6.661866307E-1,7.619546652E-1,1.107677460E1
4.073223393E0,6.757634282E-1,7.332242727E-1,1.107198620E1
4.075236622E0,6.518214345E-1,7.284358740E-1,1.109592819E1
4.077250008E0,6.661866307E-1,7.140706778E-1,1.110071659E1
4.079263706E0,6.470330358E-1,7.188590765E-1,1.111029339E1
4.081277612E0,6.470330358E-1,7.092822790E-1,1.111987019E1
4.083291674E0,6.518214345E-1,7.284358740E-1,1.112944698E1
4.085305789E0,6.326677799E-1,7.475894690E-1,1.116296577E1
4.087315008E0,6.374561787E-1,7.523778677E-1,1.119169617E1
4.089324487E0,6.278793812E-1,7.571662664E-1,1.120606136E1
4.091334331E0,6.135141850E-1,7.380126715E-1,1.123000336E1
4.093344643E0,5.895721912E-1,7.667431235E-1,1.123479176E1
4.095355476E0,6.039373875E-1,7.667431235E-1,1.124436855E1
4.097367195E0,5.991489887E-1,7.715315223E-1,1.125394535E1
4.099379278E0,5.847837925E-1,7.667431235E-1,1.127309895E1
4.101391674E0,5.554547906E-1,7.571662664E-1,1.132098293E1
4.103404591E0,5.554547906E-1,7.380126715E-1,1.133055973E1
4.105417924E0,5.506663918E-1,7.428010702E-1,1.132577133E1
4.107431466E0,5.656301379E-1,7.380126715E-1,1.130661774E1
4.109445320E0,5.458779931E-1,7.428010702E-1,1.127309895E1
4.111459174E0,5.602431893E-1,7.284358740E-1,1.124915695E1
4.113473237E0,5.554547906E-1,7.284358740E-1,1.120127296E1
4.115487403E0,5.410895944E-1,7.428010702E-1,1.118690777E1
4.117498237E0,5.458779931E-1,7.332242727E-1,1.113902378E1
4.119509226E0,5.363011956E-1,7.380126715E-1,1.108635139E1
4.121520268E0,5.075707436E-1,7.332242727E-1,1.104325581E1
4.123531622E0,5.123591423E-1,7.380126715E-1,1.098579407E1
4.125543237E0,5.027823448E-1,7.475894690E-1,1.092354488E1
4.127555008E0,5.075707436E-1,7.523778677E-1,1.082298851E1
4.129567091E0,4.979939461E-1,7.763199210E-1,1.075116253E1
4.131579278E0,4.740519226E-1,7.763199210E-1,1.061648846E1
4.133591726E0,4.644751251E-1,7.667431235E-1,1.053029728E1
4.135604435E0,4.501099288E-1,7.811083198E-1,1.042974091E1
4.137617247E0,4.261679053E-1,7.811083198E-1,1.033397293E1
4.139630268E0,4.165911078E-1,7.906851172E-1,1.027651215E1
4.141642820E0,4.165911078E-1,7.906851172E-1,1.023341656E1
4.143655528E0,4.261679053E-1,7.954735160E-1,1.019989777E1
4.145668341E0,4.213795066E-1,8.194155097E-1,1.017595577E1
4.147679851E0,4.261679053E-1,8.242039084E-1,1.017116737E1
4.149691570E0,4.357447028E-1,8.433575630E-1,1.016637897E1
4.151703289E0,4.501099288E-1,8.433575630E-1,1.015680218E1
4.153715216E0,4.501099288E-1,8.625111580E-1,1.014722538E1
4.155727351E0,4.548983276E-1,8.337807655E-1,1.011849499E1
4.157739487E0,4.596867263E-1,8.481459618E-1,1.010412979E1
4.159751831E0,4.644751251E-1,8.337807655E-1,1.010412979E1
4.161764174E0,4.740519226E-1,8.433575630E-1,1.009455299E1
4.163776674E0,4.788403511E-1,8.577227592E-1,1.009934139E1
4.165789122E0,4.884171486E-1,8.577227592E-1,1.009455299E1
4.167801310E0,4.692635238E-1,8.481459618E-1,1.009934139E1
4.169813653E0,4.788403511E-1,8.720879555E-1,1.010891819E1
4.171825424E0,4.788403511E-1,8.864531517E-1,1.011370659E1
4.173837351E0,4.740519226E-1,8.960300088E-1,1.012328339E1
