"Time (s)","Gyroscope x (rad/s)","Gyroscope y (rad/s)","Gyroscope z (rad/s)"
7.706615300E-2,-1.065233052E-1,3.022598661E-2,1.221023351E-1
7.906761200E-2,-1.139799356E-1,4.300878197E-2,1.242327988E-1
8.106907000E-2,-1.203713343E-1,5.685681105E-2,1.306242049E-1
8.307318500E-2,-1.288931966E-1,7.177007198E-2,1.370155960E-1
8.508016400E-2,-1.310236603E-1,8.987903595E-2,1.466026902E-1
8.709011200E-2,-1.342193633E-1,1.047922969E-1,1.551245600E-1
8.910302800E-2,-1.331541240E-1,1.133141592E-1,1.583202630E-1
9.111594500E-2,-1.342193633E-1,1.229012609E-1,1.636464298E-1
9.313006000E-2,-1.374150664E-1,1.250317246E-1,1.647116542E-1
9.514417400E-2,-1.384802908E-1,1.250317246E-1,1.604507267E-1
9.716089300E-2,-1.374150664E-1,1.207707971E-1,1.572550237E-1
9.918006000E-2,-1.416759938E-1,1.165098622E-1,1.508636326E-1
1.012012580E-1,-1.459369212E-1,1.154446304E-1,1.466026902E-1
1.032241740E-1,-1.480673850E-1,1.218360290E-1,1.423417628E-1
1.052481850E-1,-1.512630880E-1,1.410102248E-1,1.412765235E-1
1.072726120E-1,-1.512630880E-1,1.580539495E-1,1.434070021E-1
1.092954240E-1,-1.512630880E-1,1.729672104E-1,1.455374658E-1
1.113121430E-1,-1.523283273E-1,1.793586165E-1,1.444722265E-1
1.133247470E-1,-1.565892547E-1,1.836195439E-1,1.434070021E-1
1.153364140E-1,-1.629806459E-1,1.846847683E-1,1.380808353E-1
1.173438620E-1,-1.640458852E-1,1.836195439E-1,1.348851323E-1
1.193516740E-1,-1.672415882E-1,1.793586165E-1,1.284937263E-1
1.213599030E-1,-1.715025157E-1,1.761629134E-1,1.231675670E-1
1.233686010E-1,-1.789591461E-1,1.782933772E-1,1.221023351E-1
1.253778720E-1,-1.778939217E-1,1.910761744E-1,1.242327988E-1
1.273878200E-1,-1.832200736E-1,1.995980442E-1,1.316894293E-1
1.293984450E-1,-1.906767040E-1,2.017285079E-1,1.402112991E-1
1.314097990E-1,-2.034595013E-1,2.017285079E-1,1.519288570E-1
1.334219350E-1,-2.130466104E-1,2.091851383E-1,1.593854874E-1
1.354350600E-1,-2.311555594E-1,2.145113051E-1,1.721682847E-1
1.374488620E-1,-2.460688353E-1,2.145113051E-1,1.817553788E-1
1.394633930E-1,-2.620473206E-1,2.102503628E-1,1.924077123E-1
1.414783410E-1,-2.801562846E-1,1.985328048E-1,2.030600458E-1
1.434938100E-1,-2.993304729E-1,1.868152469E-1,2.094514370E-1
1.455095910E-1,-3.217003644E-1,1.644453406E-1,2.158428431E-1
1.475253720E-1,-3.462007344E-1,1.410102248E-1,2.201037705E-1
1.495412580E-1,-3.749620318E-1,1.133141592E-1,2.232994735E-1
1.515499030E-1,-4.026580751E-1,8.987903595E-2,2.232994735E-1
1.535588100E-1,-4.303541481E-1,6.644391268E-2,2.190385461E-1
1.555682890E-1,-4.633763731E-1,3.874785081E-2,2.137123793E-1
1.575781330E-1,-4.942681193E-1,1.744319126E-2,2.041252851E-1
1.595886010E-1,-5.230293870E-1,-1.731003635E-3,1.913424879E-1
1.615995390E-1,-5.539211631E-1,-1.344856713E-2,1.774944514E-1
1.636111530E-1,-5.794867873E-1,-2.623136342E-2,1.636464298E-1
1.656233930E-1,-6.103785038E-1,-4.327509180E-2,1.519288570E-1
1.676361010E-1,-6.348788738E-1,-4.966649041E-2,1.391460598E-1
1.696494350E-1,-6.604444981E-1,-5.818835273E-2,1.284937263E-1
1.716631330E-1,-6.806839108E-1,-6.777545065E-2,1.167761683E-1
1.736772990E-1,-6.987928748E-1,-7.842778414E-2,1.103847697E-1
1.756917780E-1,-7.137061357E-1,-8.694964647E-2,1.039933711E-1
1.777062580E-1,-7.339455485E-1,-9.440627694E-2,1.018629074E-1
1.797208930E-1,-7.467283607E-1,-9.866721183E-2,1.018629074E-1
1.817325080E-1,-7.616416216E-1,-9.866721183E-2,1.029281393E-1
1.837443310E-1,-7.722939253E-1,-9.547150880E-2,1.061238423E-1
1.857561530E-1,-7.797505856E-1,-9.227581322E-2,1.071890742E-1
1.877679760E-1,-7.882724404E-1,-8.268871158E-2,1.103847697E-1
1.897800080E-1,-7.989247441E-1,-7.949301600E-2,1.125152409E-1
1.917920390E-1,-8.074466586E-1,-7.416684926E-2,1.167761683E-1
1.938041220E-1,-8.180989623E-1,-6.138405204E-2,1.210371032E-1
1.958164140E-1,-8.276860714E-1,-3.794892505E-2,1.221023351E-1
1.978287060E-1,-8.362079263E-1,-1.025286783E-2,1.306242049E-1
1.998412060E-1,-8.500559330E-1,2.383458801E-2,1.391460598E-1
2.018537060E-1,-8.639039993E-1,6.218297780E-2,1.466026902E-1
2.038663620E-1,-8.766867518E-1,1.079879999E-1,1.593854874E-1
2.058791220E-1,-8.969262242E-1,1.580539495E-1,1.721682847E-1
2.078900080E-1,-9.267527461E-1,2.177069932E-1,1.924077123E-1
2.099011010E-1,-9.789491296E-1,3.125127256E-1,2.264951766E-1
2.119122470E-1,-1.026884675E0,3.892095089E-1,2.595174015E-1
2.139237060E-1,-1.064167738E0,4.414059222E-1,2.808220685E-1
2.159354760E-1,-1.091863871E0,4.776238501E-1,2.946700752E-1
2.179474030E-1,-1.117429495E0,5.074504018E-1,3.021267056E-1
2.199596430E-1,-1.132342696E0,5.351464152E-1,2.999962568E-1
2.219719870E-1,-1.145125508E0,5.564510822E-1,2.925396264E-1
2.239845910E-1,-1.152582169E0,5.756253004E-1,2.797568142E-1
2.259974560E-1,-1.163234472E0,5.830819011E-1,2.616478503E-1
2.280103720E-1,-1.178147674E0,5.798861980E-1,2.392779738E-1
2.300234970E-1,-1.185604334E0,5.639077425E-1,2.126471400E-1
2.320354240E-1,-1.188800097E0,5.457987785E-1,1.838858575E-1
2.340475600E-1,-1.194126248E0,5.234288573E-1,1.529940963E-1
2.360598510E-1,-1.196256638E0,5.010589957E-1,1.242327988E-1
2.380721430E-1,-1.198387146E0,4.797543287E-1,9.547150880E-2
2.400845910E-1,-1.204778552E0,4.477973282E-1,6.990591437E-2
2.420962580E-1,-1.207974195E0,4.169055820E-1,4.966649041E-2
2.441081330E-1,-1.212235212E0,3.913399875E-1,3.049229458E-2
2.461200600E-1,-1.218626618E0,3.604482114E-1,1.770949923E-2
2.481320390E-1,-1.222887516E0,3.348826170E-1,7.057168987E-3
2.501442260E-1,-1.227148414E0,3.039908707E-1,2.796236658E-3
2.521564140E-1,-1.230344176E0,2.784252763E-1,-3.994623839E-4
2.541688100E-1,-1.228213668E0,2.517944574E-1,3.861469682E-3
2.561812580E-1,-1.229278922E0,2.304897904E-1,8.122402243E-3
2.581937060E-1,-1.230344176E0,1.953371018E-1,1.344856713E-2
2.602063100E-1,-1.231409431E0,1.676410437E-1,2.197043039E-2
2.622178200E-1,-1.231409431E0,1.474016160E-1,3.155753016E-2
2.642295390E-1,-1.230344176E0,1.229012609E-1,4.220985994E-2
2.662412580E-1,-1.227148414E0,1.058575287E-1,5.179695413E-2
2.682532370E-1,-1.219691753E0,8.455286920E-2,6.138405204E-2
2.702654240E-1,-1.214365602E0,6.324820966E-2,6.777545065E-2
2.722778720E-1,-1.207974195E0,4.513924941E-2,7.736254483E-2
2.742904760E-1,-1.198387146E0,2.809552103E-2,8.375394344E-2
2.763030810E-1,-1.187734842E0,2.489982173E-2,8.908011019E-2
2.783158410E-1,-1.171756268E0,1.424749196E-2,9.440627694E-2
2.803287060E-1,-1.160038710E0,5.725627299E-3,9.866721183E-2
2.823393830E-1,-1.142995000E0,-6.657706108E-4,9.866721183E-2
2.843500600E-1,-1.131277442E0,-9.187635034E-3,1.007976755E-1
2.863608410E-1,-1.115298986E0,-1.557903271E-2,1.029281393E-1
2.883717780E-1,-1.098255277E0,-2.197043039E-2,1.007976755E-1
2.903828720E-1,-1.081211567E0,-1.983996481E-2,9.973244369E-2
2.923942260E-1,-1.057776451E0,-1.557903271E-2,9.760197252E-2
2.944061010E-1,-1.041797876E0,-1.131810062E-2,9.334104508E-2
2.964181850E-1,-1.021558523E0,-4.926702939E-3,9.014534205E-2
2.984306850E-1,-1.003449559E0,-1.731003635E-3,8.268871158E-2
3.004435490E-1,-9.832100868E-1,8.921326138E-3,7.416684926E-2
3.024567780E-1,-9.672315717E-1,9.986559860E-3,6.564498693E-2
3.044700600E-1,-9.480574131E-1,1.637795754E-2,5.925358832E-2
3.064833930E-1,-9.320788980E-1,2.489982173E-2,5.179695413E-2
3.084969350E-1,-9.118394852E-1,3.874785081E-2,4.220985994E-2
3.105105810E-1,-8.947957158E-1,4.620448127E-2,3.581846133E-2
3.125243310E-1,-8.788172603E-1,6.963960826E-2,2.197043039E-2
3.145380810E-1,-8.617734909E-1,1.260969639E-1,-2.529928461E-3
3.165457370E-1,-8.479254842E-1,1.825543046E-1,-2.809552103E-2
3.185537580E-1,-8.298165202E-1,2.155765295E-1,-4.726971686E-2
3.205622470E-1,-8.191642165E-1,2.187722325E-1,-6.005251035E-2
3.225713620E-1,-8.085118532E-1,1.921414137E-1,-6.750914454E-2
3.245812060E-1,-7.989247441E-1,1.623148769E-1,-6.750914454E-2
3.265916220E-1,-7.904028893E-1,1.260969639E-1,-6.644391268E-2
3.286028720E-1,-7.840114832E-1,1.069227681E-1,-6.324820966E-2
3.306149560E-1,-7.701634765E-1,1.122489274E-1,-6.324820966E-2
3.326278720E-1,-7.605763674E-1,1.207707971E-1,-6.324820966E-2
3.346415700E-1,-7.456631064E-1,1.410102248E-1,-6.644391268E-2
3.366557370E-1,-7.318150997E-1,1.676410437E-1,-6.963960826E-2
3.386704760E-1,-7.200975418E-1,1.889457107E-1,-7.496577501E-2
3.406856330E-1,-7.083799839E-1,2.081198990E-1,-7.709623873E-2
3.427011010E-1,-6.934667230E-1,2.272941023E-1,-8.029194176E-2
3.447167260E-1,-6.817491055E-1,2.400768995E-1,-8.029194176E-2
3.467277160E-1,-6.710968018E-1,2.549901605E-1,-8.348763734E-2
3.487389660E-1,-6.636402011E-1,2.645772398E-1,-8.029194176E-2
3.507504760E-1,-6.540530920E-1,2.667077184E-1,-7.709623873E-2
3.527622990E-1,-6.487269402E-1,2.624467909E-1,-6.750914454E-2
3.547741740E-1,-6.423355341E-1,2.507292330E-1,-5.579157919E-2
3.567861530E-1,-6.455312371E-1,2.230331600E-1,-3.342168778E-2
3.587982370E-1,-6.455312371E-1,2.059894353E-1,-9.986559860E-3
3.608105810E-1,-6.434007287E-1,1.857500076E-1,2.090519853E-2
3.628232370E-1,-6.465964317E-1,1.665758193E-1,5.392742157E-2
3.648361010E-1,-6.497921348E-1,1.580539495E-1,8.588441461E-2
3.668489660E-1,-6.551182866E-1,1.569887102E-1,1.157109365E-1
3.688619870E-1,-6.593792439E-1,1.623148769E-1,1.444722265E-1
3.708751120E-1,-6.625749469E-1,1.708367467E-1,1.711030602E-1
3.728883410E-1,-6.668358445E-1,1.772281379E-1,1.956034154E-1
3.749015700E-1,-6.732272506E-1,1.836195439E-1,2.169080675E-1
3.769102160E-1,-6.785534620E-1,1.910761744E-1,2.350170314E-1
3.789191740E-1,-6.806839108E-1,1.932066381E-1,2.509955168E-1
3.809285490E-1,-6.860100627E-1,1.942718774E-1,2.584521770E-1
3.829384450E-1,-6.860100627E-1,1.910761744E-1,2.659088075E-1
3.849489140E-1,-6.870753169E-1,1.825543046E-1,2.680392563E-1
3.869598510E-1,-6.902710199E-1,1.697715074E-1,2.659088075E-1
3.889714660E-1,-6.913362145E-1,1.527277827E-1,2.659088075E-1
3.909837060E-1,-6.892057657E-1,1.335535944E-1,2.605826259E-1
3.929966220E-1,-6.934667230E-1,1.037270650E-1,2.552564740E-1
3.950101120E-1,-6.924014688E-1,7.922670245E-2,2.488650680E-1
3.970239140E-1,-6.998580694E-1,4.513924941E-2,2.403431982E-1
3.990381330E-1,-7.051842809E-1,1.464695437E-3,2.328865677E-1
4.010526640E-1,-7.105104327E-1,-3.581846133E-2,2.222342342E-1
4.030674030E-1,-7.243584394E-1,-7.949301600E-2,2.158428431E-1
4.050822470E-1,-7.296846509E-1,-1.199718714E-1,2.073209733E-1
4.070928200E-1,-7.424674034E-1,-1.551245600E-1,1.977338791E-1
4.091036010E-1,-7.552502155E-1,-1.860163212E-1,1.892120093E-1
4.111146430E-1,-7.776201367E-1,-2.147776037E-1,1.828206182E-1
4.131259970E-1,-7.967942953E-1,-2.414084375E-1,1.753639877E-1
4.151376640E-1,-8.149032593E-1,-2.659088075E-1,1.689725816E-1
4.171494870E-1,-8.404688835E-1,-2.882786989E-1,1.615159512E-1
4.191616740E-1,-8.628387451E-1,-3.063876629E-1,1.540593207E-1
4.211741740E-1,-8.852086663E-1,-3.149095178E-1,1.444722265E-1
4.231869870E-1,-9.097089767E-1,-3.213009238E-1,1.359503716E-1
4.251998510E-1,-9.342093468E-1,-3.266270757E-1,1.274285018E-1
4.272127680E-1,-9.565792680E-1,-3.223661482E-1,1.199718714E-1
4.292258930E-1,-9.832100868E-1,-3.266270757E-1,1.125152409E-1
4.312391220E-1,-1.008775711E0,-3.223661482E-1,1.050586104E-1
4.332524560E-1,-1.031145573E0,-3.149095178E-1,9.547150880E-2
4.352658410E-1,-1.054580688E0,-3.095833361E-1,8.908011019E-2
4.372750080E-1,-1.076950550E0,-3.085181117E-1,7.949301600E-2
4.392844870E-1,-1.097190022E0,-2.968005538E-1,7.203638554E-2
4.412943310E-1,-1.116364241E0,-2.904091477E-1,6.671021879E-2
4.433046430E-1,-1.134473205E0,-2.712349594E-1,6.138405204E-2
4.453154760E-1,-1.156843066E0,-2.531259954E-1,5.712312087E-2
4.473266740E-1,-1.172821522E0,-2.296908647E-1,5.073172227E-2
4.493384450E-1,-1.185604334E0,-2.009295821E-1,4.753602296E-2
4.513507370E-1,-1.200517654E0,-1.732335240E-1,4.434032366E-2
4.533633410E-1,-1.212235212E0,-1.466026902E-1,4.434032366E-2
4.553762060E-1,-1.222887516E0,-1.199718714E-1,4.434032366E-2
4.573893310E-1,-1.235670328E0,-9.760197252E-2,4.753602296E-2
4.594026640E-1,-1.243126988E0,-7.310161740E-2,4.647079110E-2
4.614161530E-1,-1.253779292E0,-5.605788901E-2,4.860125855E-2
4.634299560E-1,-1.258040190E0,-4.434032366E-2,5.179695413E-2
4.654439660E-1,-1.267627239E0,-3.581846133E-2,5.179695413E-2
4.674579760E-1,-1.275083899E0,-3.049229458E-2,5.392742157E-2
4.694720390E-1,-1.278279662E0,-2.942706272E-2,5.499265343E-2
4.714816740E-1,-1.285736203E0,-2.729659714E-2,5.605788901E-2
4.734915700E-1,-1.291062474E0,-2.836182900E-2,5.712312087E-2
4.755017780E-1,-1.296388626E0,-3.368799388E-2,5.605788901E-2
4.775121950E-1,-1.301714778E0,-3.794892505E-2,5.499265343E-2
4.795230810E-1,-1.310236573E0,-4.753602296E-2,5.712312087E-2
4.815342260E-1,-1.314497590E0,-5.179695413E-2,5.286218971E-2
4.835458930E-1,-1.320888996E0,-5.818835273E-2,5.286218971E-2
4.855580810E-1,-1.326215148E0,-6.884068251E-2,5.179695413E-2
4.875706330E-1,-1.332606554E0,-8.268871158E-2,4.860125855E-2
4.895836530E-1,-1.338997960E0,-9.547150880E-2,4.540555924E-2
4.915968830E-1,-1.345389366E0,-1.103847697E-1,4.114462435E-2
4.936104760E-1,-1.349650264E0,-1.263632625E-1,3.688369319E-2
4.956243830E-1,-1.353911161E0,-1.434070021E-1,3.475322574E-2
4.976383410E-1,-1.361367822E0,-1.604507267E-1,3.049229458E-2
4.996524030E-1,-1.362433076E0,-1.764292270E-1,2.516612969E-2
5.016637060E-1,-1.362433076E0,-1.956034154E-1,1.983996481E-2
5.036752680E-1,-1.367759228E0,-2.179733068E-1,1.557903271E-2
5.056870390E-1,-1.370954871E0,-2.435389012E-1,1.238333434E-2
5.076988620E-1,-1.373085380E0,-2.563216984E-1,4.926702939E-3
5.097108930E-1,-1.366693974E0,-2.701697350E-1,-3.595161485E-3
5.117229240E-1,-1.366693974E0,-2.850829959E-1,-9.986559860E-3
5.137351640E-1,-1.367759228E0,-2.968005538E-1,-1.957365684E-2
5.157475600E-1,-1.366693974E0,-3.042571843E-1,-3.022598661E-2
5.177599560E-1,-1.360302567E0,-3.063876629E-1,-4.194355011E-2
5.197725080E-1,-1.353911161E0,-3.063876629E-1,-5.792204663E-2
5.217850600E-1,-1.352845907E0,-3.127790391E-1,-7.177007198E-2
5.237977680E-1,-1.344324112E0,-3.149095178E-1,-8.881380409E-2
5.258106850E-1,-1.336867452E0,-3.213009238E-1,-1.058575287E-1
5.278230280E-1,-1.327280402E0,-3.213009238E-1,-1.260969639E-1
5.298354760E-1,-1.319823742E0,-3.276923001E-1,-1.452711523E-1
5.318467780E-1,-1.307040930E0,-3.308880031E-1,-1.644453406E-1
5.338582370E-1,-1.298519015E0,-3.383446336E-1,-1.846847683E-1
5.358698510E-1,-1.289997220E0,-3.426055610E-1,-2.049241960E-1
5.378815180E-1,-1.280410051E0,-3.511274457E-1,-2.251636237E-1
5.398933930E-1,-1.266562104E0,-3.532578945E-1,-2.454030514E-1
5.419053200E-1,-1.254844546E0,-3.628450036E-1,-2.667077184E-1
5.439174560E-1,-1.243126988E0,-3.660407066E-1,-2.880123854E-1
5.459297990E-1,-1.228213668E0,-3.692364097E-1,-3.071865737E-1
5.479421950E-1,-1.215430856E0,-3.745625615E-1,-3.252955377E-1
5.499547470E-1,-1.204778552E0,-3.820191920E-1,-3.476654291E-1
5.519672470E-1,-1.190930486E0,-3.916063011E-1,-3.657743931E-1
5.539799030E-1,-1.174952030E0,-4.011933804E-1,-3.817528784E-1
5.559926640E-1,-1.163234472E0,-4.097152650E-1,-3.977313936E-1
5.580055280E-1,-1.146190763E0,-4.193023443E-1,-4.115794003E-1
5.600184450E-1,-1.132342696E0,-4.278241992E-1,-4.264926612E-1
5.620278200E-1,-1.114233732E0,-4.374113083E-1,-4.382102489E-1
5.640374560E-1,-1.100385666E0,-4.438027143E-1,-4.488625526E-1
5.660474560E-1,-1.086537719E0,-4.501941204E-1,-4.573844373E-1
5.680577160E-1,-1.070559144E0,-4.576507509E-1,-4.680367708E-1
5.700684450E-1,-1.055645943E0,-4.576507509E-1,-4.744281471E-1
5.720795390E-1,-1.040732622E0,-4.640421271E-1,-4.808195531E-1
5.740912060E-1,-1.023688912E0,-4.683030546E-1,-4.882761836E-1
5.761032370E-1,-1.007710457E0,-4.693683088E-1,-4.914718866E-1
5.781159450E-1,-9.927971959E-1,-4.746944606E-1,-4.999937415E-1
5.801291740E-1,-9.768186808E-1,-4.778901637E-1,-5.021241903E-1
5.821426640E-1,-9.619054198E-1,-4.778901637E-1,-5.074504018E-1
5.841565700E-1,-9.459269047E-1,-4.810858667E-1,-5.095808506E-1
5.861705810E-1,-9.288831949E-1,-4.800206423E-1,-5.127765536E-1
5.881846430E-1,-9.139699340E-1,-4.778901637E-1,-5.127765536E-1
5.901988100E-1,-8.990566730E-1,-4.778901637E-1,-5.149070024E-1
5.922130280E-1,-8.830781579E-1,-4.725640118E-1,-5.159722567E-1
5.942269350E-1,-8.660344481E-1,-4.651073813E-1,-5.181027055E-1
5.962340700E-1,-8.489907384E-1,-4.587159753E-1,-5.181027055E-1
5.982416220E-1,-8.330122232E-1,-4.523245692E-1,-5.181027055E-1
6.002496950E-1,-8.149032593E-1,-4.448679388E-1,-5.170374513E-1
6.022582890E-1,-7.967942953E-1,-4.395417869E-1,-5.149070024E-1
6.042677160E-1,-7.808157802E-1,-4.310199022E-1,-5.138418078E-1
6.062779760E-1,-7.637720704E-1,-4.246285260E-1,-5.117112994E-1
6.082891740E-1,-7.488588095E-1,-4.193023443E-1,-5.095808506E-1
6.103013100E-1,-7.307498455E-1,-4.150414169E-1,-5.085155964E-1
6.123143830E-1,-7.137061357E-1,-4.129109383E-1,-5.063851476E-1
6.143280810E-1,-6.977276206E-1,-4.033238590E-1,-5.074504018E-1
6.163422990E-1,-6.817491055E-1,-4.001281559E-1,-5.063851476E-1
6.183570910E-1,-6.668358445E-1,-3.979976773E-1,-5.085155964E-1
6.203722470E-1,-6.540530920E-1,-3.894758224E-1,-5.095808506E-1
6.223876120E-1,-6.370093226E-1,-3.830844164E-1,-5.095808506E-1
6.244029760E-1,-6.242265701E-1,-3.777582645E-1,-5.127765536E-1
6.264176640E-1,-6.125090122E-1,-3.766930401E-1,-5.170374513E-1
6.284324030E-1,-5.986609459E-1,-3.671059310E-1,-5.202331543E-1
6.304453720E-1,-5.858781338E-1,-3.617797792E-1,-5.255593657E-1
6.324583410E-1,-5.752258301E-1,-3.521926701E-1,-5.308855176E-1
6.344696950E-1,-5.667039752E-1,-3.415403366E-1,-5.351464152E-1
6.364778200E-1,-5.571168661E-1,-3.362141848E-1,-5.415378213E-1
6.384863100E-1,-5.496602654E-1,-3.330184817E-1,-5.447335243E-1
6.404952160E-1,-5.411383510E-1,-3.308880031E-1,-5.500596762E-1
6.425044870E-1,-5.358121991E-1,-3.255618513E-1,-5.511249304E-1
6.445143830E-1,-5.294207931E-1,-3.223661482E-1,-5.511249304E-1
6.465248510E-1,-5.240946412E-1,-3.138442934E-1,-5.511249304E-1
6.485361010E-1,-5.198337436E-1,-3.042571843E-1,-5.511249304E-1
6.505481330E-1,-5.177032351E-1,-2.957353294E-1,-5.489944816E-1
6.525608930E-1,-5.134423375E-1,-2.861482203E-1,-5.447335243E-1
6.545743310E-1,-5.102466345E-1,-2.829525173E-1,-5.426030755E-1
6.565882370E-1,-5.091813803E-1,-2.776263654E-1,-5.362116694E-1
6.586026640E-1,-5.059856772E-1,-2.637783289E-1,-5.319507122E-1
6.606175080E-1,-5.059856772E-1,-2.541912198E-1,-5.266245604E-1
6.626326640E-1,-5.027899742E-1,-2.392779738E-1,-5.223636627E-1
6.646479760E-1,-4.995943010E-1,-2.243647128E-1,-5.149070024E-1
6.666596950E-1,-4.942681193E-1,-2.179733068E-1,-5.063851476E-1
6.686716220E-1,-4.932028949E-1,-2.062557489E-1,-4.999937415E-1
6.706837580E-1,-4.889419675E-1,-1.934729517E-1,-4.936023653E-1
6.726958410E-1,-4.868114889E-1,-1.817553788E-1,-4.840152562E-1
6.747080810E-1,-4.804200828E-1,-1.679073572E-1,-4.765586257E-1
6.767200080E-1,-4.782896340E-1,-1.593854874E-1,-4.691019952E-1
6.787321430E-1,-4.804200828E-1,-1.519288570E-1,-4.584496617E-1
6.807444350E-1,-4.750939310E-1,-1.444722265E-1,-4.499278069E-1
6.827569350E-1,-4.718982279E-1,-1.370155960E-1,-4.424711764E-1
6.847695910E-1,-4.697677493E-1,-1.316894293E-1,-4.328840673E-1
6.867806850E-1,-4.633763731E-1,-1.295589656E-1,-4.254274368E-1
6.887920390E-1,-4.591154456E-1,-1.157109365E-1,-4.179708064E-1
6.908034450E-1,-4.548544884E-1,-1.135804728E-1,-4.105141759E-1
6.928151120E-1,-4.495283365E-1,-1.050586104E-1,-4.030575454E-1
6.948270390E-1,-4.452674091E-1,-9.866721183E-2,-3.966661394E-1
6.968390700E-1,-4.388760030E-1,-9.227581322E-2,-3.902747631E-1
6.988514140E-1,-4.303541481E-1,-8.481918275E-2,-3.828181326E-1
7.008640180E-1,-4.260932207E-1,-8.055824786E-2,-3.753614724E-1
7.028768830E-1,-4.175713360E-1,-7.310161740E-2,-3.679048419E-1
7.048899030E-1,-4.090494812E-1,-6.777545065E-2,-3.604482114E-1
7.069029240E-1,-4.015928507E-1,-6.138405204E-2,-3.540568352E-1
7.089161010E-1,-3.952014446E-1,-5.392742157E-2,-3.444697261E-1
7.109293310E-1,-3.834838867E-1,-4.434032366E-2,-3.359478712E-1
7.129426120E-1,-3.781577349E-1,-3.049229458E-2,-3.263607621E-1
7.149554760E-1,-3.664401472E-1,-1.557903271E-2,-3.157084286E-1
7.169636010E-1,-3.579182923E-1,-6.657706108E-4,-3.071865737E-1
7.189720390E-1,-3.483312130E-1,1.424749196E-2,-2.986647189E-1
7.209808930E-1,-3.387441039E-1,2.916075476E-2,-2.901428342E-1
7.229903720E-1,-3.270265460E-1,4.194355011E-2,-2.805557549E-1
7.250004760E-1,-3.163742125E-1,5.685681105E-2,-2.720338702E-1
7.270111010E-1,-3.035914004E-1,7.496577501E-2,-2.656424940E-1
7.290225080E-1,-2.929390669E-1,8.881380409E-2,-2.549901605E-1
7.310346430E-1,-2.758953571E-1,1.047922969E-1,-2.485987544E-1
7.330475600E-1,-2.652430236E-1,1.218360290E-1,-2.432725877E-1
7.350611010E-1,-2.492645234E-1,1.356840581E-1,-2.358159572E-1
7.370750600E-1,-2.311555594E-1,1.548582464E-1,-2.294245660E-1
7.390895390E-1,-2.130466104E-1,1.697715074E-1,-2.240983993E-1
7.411043830E-1,-1.960028708E-1,1.825543046E-1,-2.166417688E-1
7.431194350E-1,-1.757634431E-1,2.006632686E-1,-2.113156021E-1
7.451345910E-1,-1.597849578E-1,2.155765295E-1,-2.059894353E-1
7.471459970E-1,-1.374150664E-1,2.230331600E-1,-1.985328048E-1
7.491576120E-1,-1.171756312E-1,2.336854935E-1,-1.932066381E-1
7.511694350E-1,-1.011971384E-1,2.368811965E-1,-1.878804713E-1
7.531814660E-1,-7.882724702E-2,2.464682907E-1,-1.825543046E-1
7.551936530E-1,-5.965305120E-2,2.464682907E-1,-1.772281379E-1
7.572058410E-1,-4.154408723E-2,2.475335300E-1,-1.708367467E-1
7.592182370E-1,-2.023942769E-2,2.432725877E-1,-1.612496525E-1
7.612307890E-1,-4.260932095E-3,2.411421239E-1,-1.537930220E-1
7.632435490E-1,1.291595027E-2,2.368811965E-1,-1.442059278E-1
7.652564140E-1,2.782921307E-2,2.315550297E-1,-1.335535944E-1
7.672673510E-1,3.848154470E-2,2.315550297E-1,-1.218360290E-1
7.692784970E-1,5.126433820E-2,2.283593267E-1,-1.111836955E-1
7.712898510E-1,6.298190355E-2,2.272941023E-1,-9.840089828E-2
7.733014660E-1,7.256899774E-2,2.315550297E-1,-8.455286920E-2
7.753133410E-1,8.535179496E-2,2.336854935E-1,-6.963960826E-2
7.773253200E-1,9.919982404E-2,2.400768995E-1,-5.579157919E-2
7.793375600E-1,1.087869257E-1,2.443378270E-1,-4.194355011E-2
7.813500600E-1,1.247654185E-1,2.485987544E-1,-2.916075476E-2
7.833628200E-1,1.375482082E-1,2.528596818E-1,-1.744319126E-2
7.853757890E-1,1.513962448E-1,2.528596818E-1,-2.529928461E-3
7.873885490E-1,1.609833390E-1,2.581858635E-1,3.861469682E-3
7.894001120E-1,1.716356725E-1,2.592510879E-1,1.344856713E-2
7.914116740E-1,1.822880059E-1,2.549901605E-1,2.090519853E-2
7.934234970E-1,1.908098608E-1,2.496639937E-1,2.623136342E-2
7.954355810E-1,1.950708032E-1,2.475335300E-1,2.942706272E-2
7.974477160E-1,2.014621943E-1,2.422073632E-1,3.262276202E-2
7.994600600E-1,2.025274336E-1,2.368811965E-1,3.688369319E-2
8.014724030E-1,2.089188248E-1,2.336854935E-1,3.901416063E-2
8.034849560E-1,2.067883611E-1,2.304897904E-1,3.901416063E-2
8.054977160E-1,2.067883611E-1,2.283593267E-1,4.007939249E-2
8.075104760E-1,2.046578974E-1,2.272941023E-1,3.794892505E-2
8.095233410E-1,1.993317306E-1,2.209026963E-1,3.794892505E-2
8.115341220E-1,1.929403245E-1,2.166417688E-1,3.475322574E-2
8.135451640E-1,1.865489334E-1,2.123808414E-1,3.368799388E-2
8.155564660E-1,1.801575422E-1,2.017285079E-1,3.262276202E-2
8.175679240E-1,1.695052087E-1,1.921414137E-1,2.942706272E-2
8.195796950E-1,1.599181145E-1,1.782933772E-1,2.836182900E-2
8.215915700E-1,1.492657810E-1,1.729672104E-1,2.729659714E-2
8.236037580E-1,1.386134475E-1,1.612496525E-1,2.303566411E-2
8.256162580E-1,1.247654185E-1,1.474016160E-1,1.983996481E-2
8.276288620E-1,1.130478531E-1,1.356840581E-1,1.664426550E-2
8.296417260E-1,9.706936032E-2,1.207707971E-1,1.451379992E-2
8.316545910E-1,8.535179496E-2,1.133141592E-1,1.025286783E-2
8.336676640E-1,7.363422960E-2,1.058575287E-1,8.122402243E-3
8.356808930E-1,6.085143611E-2,9.627043456E-2,1.731003635E-3
8.376932890E-1,4.700340703E-2,8.561810106E-2,-3.994623839E-4
8.397057890E-1,3.528584540E-2,7.816147059E-2,-3.595161485E-3
8.417165180E-1,2.463351376E-2,7.070484012E-2,-7.856093347E-3
8.437275080E-1,1.291595027E-2,6.218297780E-2,-1.211702544E-2
8.457387580E-1,1.065233024E-3,5.792204663E-2,-1.105179265E-2
8.477501120E-1,-9.587096982E-3,5.046541616E-2,-1.211702544E-2
8.497617780E-1,-1.917419396E-2,4.833494872E-2,-1.318225823E-2
8.517735490E-1,-2.663082629E-2,4.300878197E-2,-1.424749196E-2
8.537856850E-1,-3.408745676E-2,4.194355011E-2,-1.318225823E-2
8.557979760E-1,-4.047885537E-2,4.300878197E-2,-1.318225823E-2
8.578103720E-1,-4.793548584E-2,4.087831825E-2,-1.105179265E-2
8.598230810E-1,-5.432688445E-2,3.981308267E-2,-8.921326138E-3
8.618358410E-1,-5.539211631E-2,4.300878197E-2,-6.790860556E-3
8.638488100E-1,-5.965305120E-2,4.194355011E-2,-2.529928461E-3
8.658619350E-1,-5.965305120E-2,4.087831825E-2,-3.994623839E-4
8.678747990E-1,-5.858781561E-2,4.194355011E-2,4.926702939E-3
8.698877680E-1,-5.645735189E-2,4.087831825E-2,5.991935730E-3
8.718986010E-1,-5.113118514E-2,4.407401755E-2,1.025286783E-2
8.739096430E-1,-4.367455468E-2,4.726971686E-2,1.344856713E-2
8.759209450E-1,-3.834838793E-2,4.726971686E-2,1.664426550E-2
8.779324030E-1,-2.769605815E-2,4.513924941E-2,2.090519853E-2
8.799441740E-1,-1.384802908E-2,4.833494872E-2,2.303566411E-2
8.819560490E-1,-2.130466048E-3,4.300878197E-2,2.516612969E-2
8.839682370E-1,1.065232977E-2,3.768261895E-2,2.836182900E-2
8.859806850E-1,2.463351376E-2,3.342168778E-2,3.368799388E-2
8.879932370E-1,3.741630912E-2,3.022598661E-2,3.688369319E-2
8.900060490E-1,4.806863889E-2,2.063889056E-2,4.220985994E-2
8.920189140E-1,5.872096866E-2,1.424749196E-2,4.540555924E-2
8.940319870E-1,7.256899774E-2,9.986559860E-3,4.966649041E-2
8.960451640E-1,8.322133124E-2,3.595161485E-3,5.605788901E-2
8.980569870E-1,8.961272985E-2,-4.926702939E-3,6.031882018E-2
9.000689660E-1,1.013302878E-1,-8.122402243E-3,6.564498693E-2
9.020807370E-1,1.098521575E-1,-1.344856713E-2,7.097115368E-2
9.040927160E-1,1.151783243E-1,-1.451379992E-2,7.842778414E-2
9.061046430E-1,1.237001866E-1,-1.344856713E-2,8.375394344E-2
9.081167780E-1,1.311568171E-1,-1.344856713E-2,8.908011019E-2
9.101291220E-1,1.354177445E-1,-1.025286783E-2,9.334104508E-2
9.121415180E-1,1.428743750E-1,-5.991935730E-3,9.973244369E-2
9.141540700E-1,1.482005417E-1,-6.657706108E-4,1.007976755E-1
9.161662580E-1,1.513962448E-1,2.529928461E-3,1.018629074E-1
9.181786530E-1,1.577876359E-1,8.921326138E-3,1.018629074E-1
9.201911530E-1,1.620485783E-1,7.856093347E-3,9.973244369E-2
9.222029240E-1,1.620485783E-1,7.856093347E-3,9.866721183E-2
9.242148510E-1,1.631138027E-1,8.921326138E-3,9.547150880E-2
9.262267780E-1,1.663095057E-1,9.986559860E-3,9.227581322E-2
9.282389140E-1,1.684399694E-1,1.105179265E-2,8.481918275E-2
9.302512060E-1,1.684399694E-1,7.856093347E-3,8.055824786E-2
9.322636530E-1,1.695052087E-1,9.986559860E-3,7.097115368E-2
9.342762580E-1,1.684399694E-1,1.211702544E-2,6.138405204E-2
9.362871950E-1,1.641790420E-1,1.744319126E-2,5.499265343E-2
9.382983930E-1,1.599181145E-1,1.318225823E-2,4.647079110E-2
9.403098510E-1,1.556571722E-1,1.637795754E-2,3.688369319E-2
9.423216220E-1,1.482005417E-1,1.744319126E-2,2.942706272E-2
9.443337060E-1,1.418091506E-1,2.276935615E-2,2.197043039E-2
9.463458410E-1,1.343525201E-1,2.489982173E-2,1.451379992E-2
9.483582370E-1,1.237001866E-1,3.022598661E-2,7.057168987E-3
9.503706330E-1,1.151783243E-1,3.874785081E-2,3.861469682E-3
9.523831330E-1,1.023955271E-1,4.833494872E-2,-3.994623839E-4
9.543956330E-1,9.280842543E-2,5.579157919E-2,-2.529928461E-3
9.564085490E-1,7.682993263E-2,5.898727849E-2,-4.660394508E-3
9.584216740E-1,6.404713541E-2,6.111774594E-2,-1.464695437E-3
9.604349030E-1,4.913387448E-2,6.537867337E-2,2.796236658E-3
9.624482370E-1,3.315537795E-2,6.644391268E-2,9.187635034E-3
9.644615700E-1,2.037258074E-2,6.857437640E-2,1.664426550E-2
9.664696950E-1,6.391398143E-3,6.750914454E-2,2.836182900E-2
9.684781330E-1,-1.065232977E-2,6.218297780E-2,4.007939249E-2
9.704870390E-1,-2.236989327E-2,5.685681105E-2,5.179695413E-2
9.724965180E-1,-3.621792421E-2,5.366111174E-2,6.244928762E-2
9.745066220E-1,-5.006595328E-2,5.579157919E-2,7.523208112E-2
9.765172470E-1,-5.965305120E-2,5.366111174E-2,8.801487833E-2
9.785286010E-1,-7.137060910E-2,5.792204663E-2,9.547150880E-2
9.805406850E-1,-8.202294260E-2,6.111774594E-2,1.050586104E-1
9.825534450E-1,-9.054480493E-2,6.324820966E-2,1.114500016E-1
9.845668830E-1,-1.001319066E-1,7.177007198E-2,1.167761683E-1
9.865807370E-1,-1.086537689E-1,7.709623873E-2,1.189066395E-1
9.885951120E-1,-1.161103994E-1,8.668334037E-2,1.231675670E-1
9.906098510E-1,-1.235670298E-1,9.627043456E-2,1.274285018E-1
9.926248510E-1,-1.331541240E-1,1.069227681E-1,1.284937263E-1
9.946400080E-1,-1.363498271E-1,1.143793985E-1,1.316894293E-1
9.966528720E-1,-1.406107545E-1,1.197055578E-1,1.306242049E-1
9.986658410E-1,-1.427412182E-1,1.229012609E-1,1.316894293E-1
1.000678862E0,-1.448716968E-1,1.292926520E-1,1.327546686E-1
1.002691935E0,-1.406107545E-1,1.335535944E-1,1.316894293E-1
1.004705008E0,-1.374150664E-1,1.388797611E-1,1.316894293E-1
1.006713601E0,-1.331541240E-1,1.442059278E-1,1.306242049E-1
1.008722508E0,-1.225017980E-1,1.484668553E-1,1.284937263E-1
1.010731778E0,-1.150451675E-1,1.505973190E-1,1.252980381E-1
1.012741570E0,-1.054580659E-1,1.527277827E-1,1.231675670E-1
1.014751935E0,-9.374050796E-2,1.516625583E-1,1.189066395E-1
1.016762768E0,-8.521863818E-2,1.505973190E-1,1.135804728E-1
1.018774174E0,-8.202294260E-2,1.420754492E-1,1.093195379E-1
1.020786206E0,-7.137060910E-2,1.378145218E-1,1.029281393E-1
1.022798914E0,-6.924014539E-2,1.260969639E-1,9.653674066E-2
1.024812195E0,-6.817491353E-2,1.154446304E-1,9.014534205E-2
1.026825789E0,-6.710968167E-2,1.015966013E-1,8.162347972E-2
1.028839643E0,-7.137060910E-2,8.881380409E-2,7.203638554E-2
1.030853862E0,-7.776200771E-2,7.283531129E-2,6.351451576E-2
1.032868393E0,-9.161003679E-2,5.685681105E-2,5.286218971E-2
1.034883081E0,-1.022623703E-1,4.833494872E-2,4.434032366E-2
1.036895528E0,-1.193061024E-1,3.768261895E-2,3.262276202E-2
1.038908133E0,-1.352845877E-1,2.383458801E-2,2.410089783E-2
1.040920841E0,-1.576544940E-1,1.637795754E-2,1.664426550E-2
1.042933653E0,-1.757634431E-1,5.725627299E-3,1.131810062E-2
1.044946518E0,-1.938724071E-1,-1.731003635E-3,1.025286783E-2
1.046956466E0,-2.173075378E-1,-1.131810062E-2,9.187635034E-3
1.048966674E0,-2.354165018E-1,-1.877473295E-2,8.122402243E-3
1.050977143E0,-2.524602413E-1,-2.197043039E-2,8.122402243E-3
1.052987976E0,-2.705691755E-1,-2.516612969E-2,8.122402243E-3
1.054999174E0,-2.833519876E-1,-2.942706272E-2,4.926702939E-3
1.057010581E0,-2.918738425E-1,-3.581846133E-2,3.861469682E-3
1.059022456E0,-2.940043211E-1,-6.671021879E-2,2.796236658E-3
1.061034747E0,-2.886781394E-1,-7.842778414E-2,-3.595161485E-3
1.063047456E0,-2.865476906E-1,-8.481918275E-2,-2.529928461E-3
1.065060528E0,-2.790910602E-1,-8.481918275E-2,-9.986559860E-3
1.067073758E0,-2.726996541E-1,-8.162347972E-2,-1.424749196E-2
1.069087247E0,-2.631125450E-1,-7.629731297E-2,-1.637795754E-2
1.071100945E0,-2.556559145E-1,-6.884068251E-2,-2.063889056E-2
1.073114799E0,-2.471340597E-1,-5.712312087E-2,-2.063889056E-2
1.075128706E0,-2.386122048E-1,-4.966649041E-2,-1.957365684E-2
1.077137872E0,-2.300903350E-1,-3.688369319E-2,-1.957365684E-2
1.079147351E0,-2.226337045E-1,-2.623136342E-2,-2.063889056E-2
1.081157247E0,-2.141118348E-1,-1.451379992E-2,-1.957365684E-2
1.083167612E0,-2.087856680E-1,-4.926702939E-3,-2.063889056E-2
1.085178445E0,-2.034595013E-1,3.595161485E-3,-2.596505545E-2
1.087189643E0,-1.991985738E-1,1.318225823E-2,-2.916075476E-2
1.089201414E0,-2.002638131E-1,1.531272475E-2,-3.448691964E-2
1.091213706E0,-1.991985738E-1,2.276935615E-2,-3.874785081E-2
1.093226362E0,-1.938724071E-1,2.596505545E-2,-4.300878197E-2
1.095239487E0,-1.896114796E-1,2.809552103E-2,-4.620448127E-2
1.097252872E0,-1.842853129E-1,3.235645220E-2,-4.940018058E-2
1.099266622E0,-1.768286824E-1,3.555215150E-2,-4.940018058E-2
1.101280633E0,-1.736329794E-1,4.194355011E-2,-4.833494872E-2
1.103294903E0,-1.704372764E-1,4.087831825E-2,-4.513924941E-2
1.105309278E0,-1.661763489E-1,4.407401755E-2,-3.874785081E-2
1.107321049E0,-1.608501822E-1,4.513924941E-2,-3.555215150E-2
1.109332976E0,-1.565892547E-1,4.833494872E-2,-2.916075476E-2
1.111345060E0,-1.576544940E-1,4.833494872E-2,-2.489982173E-2
1.113357299E0,-1.555240154E-1,5.153064802E-2,-2.170412242E-2
1.115369539E0,-1.608501822E-1,5.366111174E-2,-1.637795754E-2
1.117381778E0,-1.576544940E-1,5.898727849E-2,-1.318225823E-2
1.119393028E0,-1.597849578E-1,6.324820966E-2,-1.211702544E-2
1.121404278E0,-1.597849578E-1,7.070484012E-2,-9.986559860E-3
1.123415789E0,-1.672415882E-1,7.816147059E-2,-1.211702544E-2
1.125427560E0,-1.672415882E-1,8.774857223E-2,-1.318225823E-2
1.127439435E0,-1.715025157E-1,1.026618332E-1,-1.318225823E-2
1.129451570E0,-1.768286824E-1,1.154446304E-1,-1.318225823E-2
1.131463758E0,-1.821548492E-1,1.314231306E-1,-1.211702544E-2
1.133476258E0,-1.874810159E-1,1.463363916E-1,-1.211702544E-2
1.135488966E0,-1.938724071E-1,1.601844132E-1,-1.105179265E-2
1.137501726E0,-1.981333494E-1,1.708367467E-1,-7.856093347E-3
1.139514643E0,-2.013290375E-1,1.825543046E-1,-6.790860556E-3
1.141526153E0,-2.013290375E-1,1.974675655E-1,-5.725627299E-3
1.143537872E0,-2.023942769E-1,2.059894353E-1,-5.725627299E-3
1.145549799E0,-2.045247406E-1,2.134460658E-1,-5.725627299E-3
1.147561778E0,-2.023942769E-1,2.251636237E-1,-7.856093347E-3
1.149573966E0,-1.970681101E-1,2.326202542E-1,-7.856093347E-3
1.151586153E0,-1.928071827E-1,2.400768995E-1,-8.921326138E-3
1.153598601E0,-1.853505522E-1,2.517944574E-1,-1.105179265E-2
1.155611206E0,-1.800243855E-1,2.571206093E-1,-8.921326138E-3
1.157623810E0,-1.693720520E-1,2.645772398E-1,-7.856093347E-3
1.159636570E0,-1.608501822E-1,2.730991244E-1,-7.856093347E-3
1.161648028E0,-1.470021605E-1,2.784252763E-1,-5.725627299E-3
1.163659695E0,-1.352845877E-1,2.805557549E-1,-5.725627299E-3
1.165671570E0,-1.225017980E-1,2.858819067E-1,-4.660394508E-3
1.167683497E0,-1.065233052E-1,2.805557549E-1,-3.595161485E-3
1.169695633E0,-8.947957307E-2,2.784252763E-1,-1.464695437E-3
1.171707820E0,-7.243584841E-2,2.730991244E-1,-3.994623839E-4
1.173720216E0,-5.432688445E-2,2.656424940E-1,-3.994623839E-4
1.175732820E0,-3.515268862E-2,2.581858635E-1,-1.464695437E-3
1.177745424E0,-1.278279629E-2,2.496639937E-1,-2.529928461E-3
1.179758185E0,5.326164886E-3,2.358159572E-1,-6.790860556E-3
1.181769383E0,2.463351376E-2,2.219679356E-1,-7.856093347E-3
1.183780789E0,4.700340703E-2,2.145113051E-1,-1.211702544E-2
1.185792247E0,6.404713541E-2,2.049241960E-1,-1.424749196E-2
1.187803810E0,8.109086752E-2,1.942718774E-1,-1.637795754E-2
1.189815633E0,9.813459218E-2,1.857500076E-1,-2.063889056E-2
1.191827560E0,1.109173894E-1,1.793586165E-1,-2.063889056E-2
1.193839799E0,1.205044836E-1,1.761629134E-1,-2.276935615E-2
1.195852299E0,1.279611140E-1,1.687062830E-1,-2.489982173E-2
1.197864903E0,1.364829838E-1,1.655105799E-1,-2.489982173E-2
1.199877716E0,1.386134475E-1,1.655105799E-1,-2.703028731E-2
1.201890528E0,1.418091506E-1,1.623148769E-1,-3.022598661E-2
1.203903497E0,1.396786869E-1,1.633801162E-1,-3.235645220E-2
1.205916570E0,1.364829838E-1,1.655105799E-1,-3.555215150E-2
1.207928758E0,1.290263534E-1,1.665758193E-1,-3.768261895E-2
1.209941049E0,1.215697154E-1,1.729672104E-1,-4.087831825E-2
1.211951258E0,1.130478531E-1,1.750976741E-1,-4.620448127E-2
1.213961726E0,1.013302878E-1,1.782933772E-1,-4.940018058E-2
1.215972508E0,8.961272985E-2,1.825543046E-1,-5.472634733E-2
1.217983497E0,7.576470077E-2,1.868152469E-1,-5.898727849E-2
1.219994851E0,6.191666797E-2,1.868152469E-1,-6.111774594E-2
1.222006466E0,4.700340703E-2,1.878804713E-1,-6.644391268E-2
1.224018497E0,3.315537795E-2,1.857500076E-1,-7.070484012E-2
1.226030945E0,1.504641678E-2,1.910761744E-1,-7.816147059E-2
1.228043601E0,-4.260932095E-3,1.900109351E-1,-8.242240548E-2
1.230056622E0,-2.130465955E-2,1.910761744E-1,-8.881380409E-2
1.232069747E0,-3.728315607E-2,1.921414137E-1,-9.413997084E-2
1.234083133E0,-5.326165259E-2,1.900109351E-1,-1.005313694E-1
1.236096518E0,-7.137060910E-2,1.878804713E-1,-1.058575287E-1
1.238110060E0,-8.841434121E-2,1.836195439E-1,-1.101184636E-1
1.240123706E0,-1.054580659E-1,1.761629134E-1,-1.133141592E-1
1.242134018E0,-1.235670298E-1,1.708367467E-1,-1.186403260E-1
1.244144539E0,-1.395455301E-1,1.665758193E-1,-1.197055578E-1
1.246155164E0,-1.533935517E-1,1.612496525E-1,-1.197055578E-1
1.248166153E0,-1.715025157E-1,1.537930220E-1,-1.175750941E-1
1.250177560E0,-1.832200736E-1,1.495320797E-1,-1.175750941E-1
1.252189383E0,-1.970681101E-1,1.452711523E-1,-1.122489274E-1
1.254201622E0,-2.098509073E-1,1.399449855E-1,-1.101184636E-1
1.256214070E0,-2.205032408E-1,1.346188188E-1,-1.079879999E-1
1.258226883E0,-2.354165018E-1,1.197055578E-1,-1.037270650E-1
1.260240008E0,-2.439383566E-1,1.069227681E-1,-1.005313694E-1
1.262253445E0,-2.556559145E-1,9.627043456E-2,-9.840089828E-2
1.264267091E0,-2.609820962E-1,8.668334037E-2,-8.455286920E-2
1.266279643E0,-2.684387267E-1,7.603100687E-2,-5.898727849E-2
1.268292351E0,-2.705691755E-1,7.390054315E-2,-3.342168778E-2
1.270305164E0,-2.716344297E-1,6.963960826E-2,-6.790860556E-3
1.272316883E0,-2.705691755E-1,7.070484012E-2,1.557903271E-2
1.274328758E0,-2.663082480E-1,7.177007198E-2,3.688369319E-2
1.276340112E0,-2.588516176E-1,7.709623873E-2,5.286218971E-2
1.278351674E0,-2.545906901E-1,7.922670245E-2,6.671021879E-2
1.280363445E0,-2.481992990E-1,8.029194176E-2,7.736254483E-2
1.282375372E0,-2.418078929E-1,8.348763734E-2,8.588441461E-2
1.284387299E0,-2.364817262E-1,8.348763734E-2,8.694964647E-2
1.286399383E0,-2.300903350E-1,8.668334037E-2,8.801487833E-2
1.288411518E0,-2.226337045E-1,8.987903595E-2,8.694964647E-2
1.290423862E0,-2.183727771E-1,8.881380409E-2,8.908011019E-2
1.292436466E0,-2.141118348E-1,8.774857223E-2,8.908011019E-2
1.294449226E0,-2.109161317E-1,8.881380409E-2,8.908011019E-2
1.296461726E0,-2.066552043E-1,9.307473898E-2,9.121058136E-2
1.298474435E0,-2.045247406E-1,9.094426781E-2,9.121058136E-2
1.300487299E0,-2.002638131E-1,9.200949967E-2,9.334104508E-2
1.302500216E0,-2.023942769E-1,8.881380409E-2,9.547150880E-2
1.304513185E0,-1.981333494E-1,8.881380409E-2,9.653674066E-2
1.306522403E0,-1.970681101E-1,8.561810106E-2,9.973244369E-2
1.308531935E0,-1.970681101E-1,7.816147059E-2,1.018629074E-1
1.310541831E0,-1.981333494E-1,7.283531129E-2,1.082543060E-1
1.312552195E0,-1.981333494E-1,6.644391268E-2,1.135804728E-1
1.314563081E0,-1.928071827E-1,6.218297780E-2,1.178414002E-1
1.316574331E0,-1.938724071E-1,5.898727849E-2,1.231675670E-1
1.318586153E0,-1.928071827E-1,5.259587988E-2,1.284937263E-1
1.320598549E0,-1.896114796E-1,4.513924941E-2,1.338198930E-1
1.322611258E0,-1.874810159E-1,3.768261895E-2,1.380808353E-1
1.324624435E0,-1.842853129E-1,2.703028731E-2,1.402112991E-1
1.326637820E0,-1.821548492E-1,2.063889056E-2,1.402112991E-1
1.328651622E0,-1.757634431E-1,1.211702544E-2,1.402112991E-1
1.330665737E0,-1.704372764E-1,7.856093347E-3,1.348851323E-1
1.332680060E0,-1.651111245E-1,4.660394508E-3,1.338198930E-1
1.334694487E0,-1.555240154E-1,-3.861469682E-3,1.295589656E-1
1.336705008E0,-1.491326243E-1,-9.187635034E-3,1.221023351E-1
1.338715789E0,-1.448716968E-1,-1.983996481E-2,1.135804728E-1
1.340726831E0,-1.374150664E-1,-3.049229458E-2,1.007976755E-1
1.342737976E0,-1.331541240E-1,-4.540555924E-2,8.908011019E-2
1.344749435E0,-1.288931966E-1,-6.138405204E-2,7.203638554E-2
1.346761049E0,-1.278279573E-1,-7.523208112E-2,5.499265343E-2
1.348773028E0,-1.288931966E-1,-9.014534205E-2,3.688369319E-2
1.350785372E0,-1.310236603E-1,-1.103847697E-1,2.303566411E-2
1.352798081E0,-1.352845877E-1,-1.274285018E-1,1.557903271E-2
1.354811101E0,-1.342193633E-1,-1.455374658E-1,1.451379992E-2
1.356824174E0,-1.374150664E-1,-1.572550237E-1,1.557903271E-2
1.358837508E0,-1.384802908E-1,-1.700378209E-1,2.090519853E-2
1.360850997E0,-1.374150664E-1,-1.806901544E-1,2.410089783E-2
1.362864643E0,-1.374150664E-1,-1.892120093E-1,2.836182900E-2
1.364878289E0,-1.363498271E-1,-1.977338791E-1,3.368799388E-2
1.366887403E0,-1.384802908E-1,-2.019948065E-1,3.475322574E-2
1.368896831E0,-1.363498271E-1,-2.062557489E-1,3.581846133E-2
1.370906622E0,-1.342193633E-1,-2.062557489E-1,3.688369319E-2
1.372916883E0,-1.331541240E-1,-2.009295821E-1,3.688369319E-2
1.374927612E0,-1.320888996E-1,-1.934729517E-1,3.368799388E-2
1.376938758E0,-1.278279573E-1,-1.881467849E-1,3.475322574E-2
1.378950476E0,-1.278279573E-1,-1.817553788E-1,3.262276202E-2
1.380962768E0,-1.214365661E-1,-1.721682847E-1,3.155753016E-2
1.382975633E0,-1.193061024E-1,-1.657768935E-1,3.155753016E-2
1.384988966E0,-1.150451675E-1,-1.593854874E-1,3.155753016E-2
1.387002508E0,-1.129147038E-1,-1.561897993E-1,2.942706272E-2
1.389016414E0,-1.118494645E-1,-1.508636326E-1,3.368799388E-2
1.391030581E0,-1.107842326E-1,-1.487331539E-1,3.688369319E-2
1.393044956E0,-1.097190008E-1,-1.444722265E-1,3.581846133E-2
1.395059383E0,-1.043928340E-1,-1.359503716E-1,4.114462435E-2
1.397069383E0,-1.033276021E-1,-1.284937263E-1,4.434032366E-2
1.399079643E0,-1.033276021E-1,-1.189066395E-1,4.860125855E-2
1.401090216E0,-1.022623703E-1,-1.071890742E-1,5.073172227E-2
1.403101206E0,-1.022623703E-1,-9.653674066E-2,5.392742157E-2
1.405112560E0,-1.022623703E-1,-8.588441461E-2,5.818835273E-2
1.407124174E0,-1.001319066E-1,-7.416684926E-2,6.138405204E-2
1.409136258E0,-9.800143540E-2,-6.351451576E-2,6.564498693E-2
1.411148706E0,-9.587097168E-2,-5.073172227E-2,6.564498693E-2
1.413161570E0,-9.054480493E-2,-3.901416063E-2,6.777545065E-2
1.415174747E0,-8.947957307E-2,-3.262276202E-2,7.203638554E-2
1.417188028E0,-8.415340632E-2,-2.410089783E-2,7.310161740E-2
1.419201414E0,-7.882724702E-2,-1.664426550E-2,7.523208112E-2
1.421214956E0,-7.243584841E-2,-8.122402243E-3,7.629731297E-2
1.423228653E0,-6.178351492E-2,-2.796236658E-3,7.629731297E-2
1.425242403E0,-5.219641700E-2,1.464695437E-3,7.736254483E-2
1.427251883E0,-4.154408723E-2,9.986559860E-3,7.523208112E-2
1.429261622E0,-2.769605815E-2,1.424749196E-2,7.629731297E-2
1.431271674E0,-1.384802908E-2,1.957365684E-2,7.416684926E-2
1.433282195E0,2.130466048E-3,2.170412242E-2,7.416684926E-2
1.435292976E0,2.037258074E-2,2.703028731E-2,7.310161740E-2
1.437304070E0,3.741630912E-2,2.596505545E-2,7.203638554E-2
1.439315737E0,5.659050494E-2,2.809552103E-2,7.097115368E-2
1.441327924E0,7.363422960E-2,2.596505545E-2,6.884068251E-2
1.443340789E0,9.280842543E-2,2.276935615E-2,6.884068251E-2
1.445354070E0,1.130478531E-1,2.063889056E-2,7.203638554E-2
1.447367716E0,1.322220564E-1,2.170412242E-2,7.629731297E-2
1.449381466E0,1.492657810E-1,1.850842312E-2,8.055824786E-2
1.451395268E0,1.705704331E-1,1.957365684E-2,8.375394344E-2
1.453409070E0,1.940055639E-1,1.744319126E-2,8.694964647E-2
1.455422976E0,2.163754553E-1,1.318225823E-2,8.801487833E-2
1.457435268E0,2.334191799E-1,8.921326138E-3,8.694964647E-2
1.459447664E0,2.483324558E-1,3.994623839E-4,8.588441461E-2
1.461457664E0,2.643109560E-1,-3.861469682E-3,8.481918275E-2
1.463467976E0,2.760285139E-1,-1.131810062E-2,8.162347972E-2
1.465478601E0,2.877460718E-1,-2.197043039E-2,7.842778414E-2
1.467489487E0,2.952027023E-1,-2.623136342E-2,7.629731297E-2
1.469500789E0,2.983984053E-1,-3.368799388E-2,8.268871158E-2
1.471512351E0,3.026593328E-1,-3.688369319E-2,8.588441461E-2
1.473524331E0,3.047898114E-1,-4.327509180E-2,8.694964647E-2
1.475536726E0,3.058550358E-1,-4.540555924E-2,8.801487833E-2
1.477549383E0,3.037245572E-1,-4.860125855E-2,8.694964647E-2
1.479562456E0,2.994636297E-1,-5.499265343E-2,8.268871158E-2
1.481575685E0,2.930722237E-1,-6.031882018E-2,8.055824786E-2
1.483589226E0,2.856155932E-1,-6.457975507E-2,7.310161740E-2
1.485602976E0,2.770937383E-1,-7.203638554E-2,6.457975507E-2
1.487616987E0,2.696371078E-1,-7.949301600E-2,5.925358832E-2
1.489631049E0,2.557890713E-1,-8.481918275E-2,5.179695413E-2
1.491640008E0,2.430062890E-1,-9.334104508E-2,4.753602296E-2
1.493649278E0,2.323539555E-1,-9.866721183E-2,4.647079110E-2
1.495658966E0,2.163754553E-1,-1.018629074E-1,4.434032366E-2
1.497668966E0,2.025274336E-1,-1.061238423E-1,4.327509180E-2
1.499679539E0,1.886793971E-1,-1.114500016E-1,4.434032366E-2
1.501690528E0,1.727008969E-1,-1.135804728E-1,4.434032366E-2
1.503702195E0,1.620485783E-1,-1.167761683E-1,4.434032366E-2
1.505714487E0,1.503310055E-1,-1.199718714E-1,4.220985994E-2
1.507727247E0,1.386134475E-1,-1.231675670E-1,4.220985994E-2
1.509740581E0,1.300915778E-1,-1.274285018E-1,3.794892505E-2
1.511754226E0,1.215697154E-1,-1.327546686E-1,3.581846133E-2
1.513768289E0,1.194392517E-1,-1.306242049E-1,3.049229458E-2
1.515782456E0,1.141130850E-1,-1.338198930E-1,2.836182900E-2
1.517796883E0,1.098521575E-1,-1.316894293E-1,2.197043039E-2
1.519811414E0,1.077216864E-1,-1.327546686E-1,1.983996481E-2
1.521822143E0,1.066564545E-1,-1.295589656E-1,1.664426550E-2
1.523833133E0,1.045259908E-1,-1.284937263E-1,1.344856713E-2
1.525844383E0,1.023955271E-1,-1.295589656E-1,9.187635034E-3
1.527855997E0,1.034607589E-1,-1.252980381E-1,7.057168987E-3
1.529867924E0,1.023955271E-1,-1.252980381E-1,7.057168987E-3
1.531879956E0,1.045259908E-1,-1.199718714E-1,5.991935730E-3
1.533892091E0,1.045259908E-1,-1.125152409E-1,4.926702939E-3
1.535904487E0,1.077216864E-1,-1.061238423E-1,5.991935730E-3
1.537917195E0,1.066564545E-1,-1.018629074E-1,4.926702939E-3
1.539930164E0,1.066564545E-1,-9.760197252E-2,5.991935730E-3
1.541943133E0,1.077216864E-1,-8.908011019E-2,8.122402243E-3
1.543956258E0,1.055912226E-1,-8.375394344E-2,9.187635034E-3
1.545969539E0,1.077216864E-1,-7.416684926E-2,1.131810062E-2
1.547980685E0,1.066564545E-1,-6.564498693E-2,1.451379992E-2
1.549992039E0,1.087869257E-1,-5.818835273E-2,1.664426550E-2
1.552003445E0,1.109173894E-1,-5.179695413E-2,2.090519853E-2
1.554015112E0,1.130478531E-1,-5.179695413E-2,2.410089783E-2
1.556027039E0,1.173087880E-1,-4.540555924E-2,2.516612969E-2
1.558039226E0,1.247654185E-1,-4.007939249E-2,2.729659714E-2
1.560051674E0,1.311568171E-1,-3.581846133E-2,2.729659714E-2
1.562064226E0,1.407439113E-1,-3.368799388E-2,2.836182900E-2
1.564076987E0,1.503310055E-1,-3.049229458E-2,2.836182900E-2
1.566089226E0,1.620485783E-1,-2.942706272E-2,2.623136342E-2
1.568101466E0,1.748313755E-1,-2.942706272E-2,2.942706272E-2
1.570113914E0,1.886793971E-1,-2.942706272E-2,2.942706272E-2
1.572126570E0,2.035926580E-1,-3.262276202E-2,3.049229458E-2
1.574139383E0,2.185059190E-1,-3.155753016E-2,3.155753016E-2
1.576150945E0,2.387453467E-1,-3.368799388E-2,3.155753016E-2
1.578162716E0,2.547238469E-1,-4.434032366E-2,3.368799388E-2
1.580174643E0,2.696371078E-1,-5.499265343E-2,3.368799388E-2
1.582186726E0,2.877460718E-1,-6.777545065E-2,3.262276202E-2
1.584198966E0,3.037245572E-1,-7.629731297E-2,2.942706272E-2
1.586211206E0,3.175725937E-1,-8.908011019E-2,2.410089783E-2
1.588223653E0,3.292901516E-1,-1.029281393E-1,1.877473295E-2
1.590236206E0,3.431381881E-1,-1.210371032E-1,1.131810062E-2
1.592248914E0,3.537905216E-1,-1.284937263E-1,7.057168987E-3
1.594261726E0,3.601819277E-1,-1.316894293E-1,7.057168987E-3
1.596271570E0,3.633776009E-1,-1.359503716E-1,7.057168987E-3
1.598281726E0,3.655080795E-1,-1.412765235E-1,5.991935730E-3
1.600292195E0,3.633776009E-1,-1.444722265E-1,3.861469682E-3
1.602303081E0,3.623123765E-1,-1.508636326E-1,1.731003635E-3
1.604314383E0,3.580514491E-1,-1.561897993E-1,-3.994623839E-4
1.606325945E0,3.463338912E-1,-1.593854874E-1,-5.725627299E-3
1.608338028E0,3.335510790E-1,-1.519288570E-1,-9.986559860E-3
1.610350528E0,3.250292242E-1,-1.455374658E-1,-1.637795754E-2
1.612363289E0,3.122464418E-1,-1.423417628E-1,-2.276935615E-2
1.614376258E0,2.962679267E-1,-1.391460598E-1,-3.022598661E-2
1.616389383E0,2.824199200E-1,-1.338198930E-1,-3.874785081E-2
1.618402612E0,2.653761804E-1,-1.263632625E-1,-4.513924941E-2
1.620416049E0,2.462019771E-1,-1.210371032E-1,-5.153064802E-2
1.622429695E0,2.291582525E-1,-1.146457046E-1,-5.685681105E-2
1.624443497E0,2.131797522E-1,-1.061238423E-1,-6.218297780E-2
1.626454539E0,1.918751001E-1,-9.973244369E-2,-6.644391268E-2
1.628465841E0,1.748313755E-1,-9.334104508E-2,-6.963960826E-2
1.630477351E0,1.524614692E-1,-8.908011019E-2,-7.177007198E-2
1.632489122E0,1.343525201E-1,-8.162347972E-2,-7.177007198E-2
1.634501101E0,1.130478531E-1,-7.736254483E-2,-7.283531129E-2
1.636513133E0,9.493889660E-2,-7.097115368E-2,-7.177007198E-2
1.638525424E0,7.256899774E-2,-6.564498693E-2,-7.496577501E-2
1.640537924E0,5.339480564E-2,-6.457975507E-2,-7.603100687E-2
1.642550685E0,3.315537795E-2,-5.818835273E-2,-7.603100687E-2
1.644563601E0,1.504641678E-2,-5.179695413E-2,-7.709623873E-2
1.646576414E0,-3.195699072E-3,-4.647079110E-2,-7.709623873E-2
1.648589331E0,-1.810896210E-2,-3.581846133E-2,-7.709623873E-2
1.650602299E0,-3.302222490E-2,-2.623136342E-2,-7.390054315E-2
1.652615320E0,-4.580501840E-2,-1.770949923E-2,-6.963960826E-2
1.654628341E0,-6.071828306E-2,-7.057168987E-3,-6.750914454E-2
1.656636778E0,-7.137060910E-2,2.529928461E-3,-6.431344151E-2
1.658645581E0,-8.202294260E-2,9.986559860E-3,-6.005251035E-2
1.660654799E0,-9.480573982E-2,1.850842312E-2,-5.898727849E-2
1.662664383E0,-1.033276021E-1,2.703028731E-2,-5.579157919E-2
1.664674539E0,-1.086537689E-1,3.768261895E-2,-5.366111174E-2
1.666685216E0,-1.150451675E-1,4.513924941E-2,-5.472634733E-2
1.668696622E0,-1.225017980E-1,5.046541616E-2,-5.472634733E-2
1.670708758E0,-1.267627329E-1,5.472634733E-2,-5.579157919E-2
1.672721570E0,-1.310236603E-1,6.111774594E-2,-5.792204663E-2
1.674735008E0,-1.363498271E-1,6.218297780E-2,-6.005251035E-2
1.676748810E0,-1.406107545E-1,6.218297780E-2,-6.111774594E-2
1.678763081E0,-1.459369212E-1,6.111774594E-2,-6.431344151E-2
1.680777716E0,-1.480673850E-1,5.792204663E-2,-6.857437640E-2
1.682792403E0,-1.512630880E-1,5.579157919E-2,-6.963960826E-2
1.684807247E0,-1.533935517E-1,5.153064802E-2,-7.177007198E-2
1.686819487E0,-1.587197185E-1,4.620448127E-2,-7.603100687E-2
1.688831883E0,-1.608501822E-1,3.768261895E-2,-7.816147059E-2
1.690844383E0,-1.597849578E-1,3.342168778E-2,-8.242240548E-2
1.692856987E0,-1.619154215E-1,2.489982173E-2,-8.668334037E-2
1.694869591E0,-1.576544940E-1,1.637795754E-2,-9.094426781E-2
1.696880008E0,-1.565892547E-1,7.856093347E-3,-9.627043456E-2
1.698890685E0,-1.533935517E-1,-3.861469682E-3,-1.026618332E-1
1.700901622E0,-1.480673850E-1,-1.025286783E-2,-1.069227681E-1
1.702912872E0,-1.438064575E-1,-2.303566411E-2,-1.154446304E-1
1.704924435E0,-1.406107545E-1,-3.581846133E-2,-1.229012609E-1
1.706936153E0,-1.363498271E-1,-4.860125855E-2,-1.292926520E-1
1.708948237E0,-1.310236603E-1,-5.392742157E-2,-1.431406885E-1
1.710960633E0,-1.225017980E-1,-5.179695413E-2,-1.601844132E-1
1.712973341E0,-1.193061024E-1,-4.434032366E-2,-1.740324497E-1
1.714986310E0,-1.171756312E-1,-3.475322574E-2,-1.889457107E-1
1.716999331E0,-1.150451675E-1,-2.303566411E-2,-1.995980442E-1
1.719012560E0,-1.107842326E-1,-1.451379992E-2,-2.038589716E-1
1.721025945E0,-1.075885370E-1,-5.991935730E-3,-2.059894353E-1
1.723039435E0,-1.075885370E-1,3.994623839E-4,-2.017285079E-1
1.725052924E0,-1.033276021E-1,5.725627299E-3,-1.985328048E-1
1.727062247E0,-9.906667471E-2,6.790860556E-3,-1.921414137E-1
1.729071831E0,-9.267527610E-2,4.660394508E-3,-1.868152469E-1
1.731081726E0,-8.841434121E-2,-2.796236658E-3,-1.825543046E-1
1.733092091E0,-8.415340632E-2,-8.122402243E-3,-1.761629134E-1
1.735102924E0,-7.989247888E-2,-1.025286783E-2,-1.750976741E-1
1.737114122E0,-7.456631213E-2,-8.122402243E-3,-1.719019860E-1
1.739125893E0,-6.924014539E-2,-4.926702939E-3,-1.687062830E-1
1.741138237E0,-6.604444981E-2,3.994623839E-4,-1.687062830E-1
1.743151101E0,-6.284874678E-2,5.725627299E-3,-1.676410437E-1
1.745164383E0,-5.752258375E-2,2.529928461E-3,-1.655105799E-1
1.747177924E0,-5.326165259E-2,2.529928461E-3,-1.644453406E-1
1.749191778E0,-5.113118514E-2,-6.657706108E-4,-1.633801162E-1
1.751205841E0,-5.006595328E-2,-7.057168987E-3,-1.633801162E-1
1.753220112E0,-4.687025398E-2,-1.344856713E-2,-1.623148769E-1
1.755234487E0,-4.580501840E-2,-2.410089783E-2,-1.601844132E-1
1.757245320E0,-4.580501840E-2,-3.475322574E-2,-1.612496525E-1
1.759256310E0,-4.367455468E-2,-4.540555924E-2,-1.623148769E-1
1.761267508E0,-4.367455468E-2,-5.605788901E-2,-1.623148769E-1
1.763278966E0,-4.580501840E-2,-6.457975507E-2,-1.612496525E-1
1.765290685E0,-4.793548584E-2,-7.416684926E-2,-1.623148769E-1
1.767302508E0,-4.687025398E-2,-8.588441461E-2,-1.623148769E-1
1.769314643E0,-5.006595328E-2,-9.440627694E-2,-1.623148769E-1
1.771327039E0,-5.113118514E-2,-1.050586104E-1,-1.612496525E-1
1.773339695E0,-5.113118514E-2,-1.135804728E-1,-1.612496525E-1
1.775352560E0,-5.326165259E-2,-1.284937263E-1,-1.559234858E-1
1.777365476E0,-5.326165259E-2,-1.370155960E-1,-1.442059278E-1
1.779378393E0,-5.219641700E-2,-1.455374658E-1,-1.271621883E-1
1.781389331E0,-4.687025398E-2,-1.529940963E-1,-1.111836955E-1
1.783400320E0,-4.154408723E-2,-1.583202630E-1,-9.627043456E-2
1.785411570E0,-3.302222490E-2,-1.625811905E-1,-8.561810106E-2
1.787422924E0,-2.130465955E-2,-1.689725816E-1,-7.496577501E-2
1.789434643E0,-1.384802908E-2,-1.742987484E-1,-6.857437640E-2
1.791446518E0,-4.260932095E-3,-1.774944514E-1,-6.537867337E-2
1.793458758E0,4.260932095E-3,-1.881467849E-1,-6.537867337E-2
1.795471310E0,1.398118306E-2,-1.945381761E-1,-7.177007198E-2
1.797484018E0,2.463351376E-2,-2.009295821E-1,-7.816147059E-2
1.799496987E0,2.995967865E-2,-2.062557489E-1,-8.561810106E-2
1.801510008E0,3.102491237E-2,-2.126471400E-1,-9.733566642E-2
1.803523185E0,3.315537795E-2,-2.190385461E-1,-1.101184636E-1
1.805536466E0,3.102491237E-2,-2.232994735E-1,-1.250317246E-1
1.807549070E0,2.569874749E-2,-2.243647128E-1,-1.388797611E-1
1.809561778E0,1.504641678E-2,-2.296908647E-1,-1.495320797E-1
1.811571987E0,3.195699072E-3,-2.296908647E-1,-1.623148769E-1
1.813582456E0,-1.171756350E-2,-2.318213433E-1,-1.729672104E-1
1.815593237E0,-2.769605815E-2,-2.286256403E-1,-1.814890802E-1
1.817604278E0,-4.580501840E-2,-2.201037705E-1,-1.878804713E-1
1.819615685E0,-6.391397864E-2,-2.094514370E-1,-1.921414137E-1
1.821627299E0,-8.202294260E-2,-2.073209733E-1,-1.932066381E-1
1.823639331E0,-9.800143540E-2,-2.073209733E-1,-1.889457107E-1
1.825651726E0,-1.086537689E-1,-2.030600458E-1,-1.836195439E-1
1.827664487E0,-1.235670298E-1,-1.998643428E-1,-1.750976741E-1
1.829677612E0,-1.299584359E-1,-1.945381761E-1,-1.655105799E-1
1.831690841E0,-1.374150664E-1,-1.902772486E-1,-1.537930220E-1
1.833704331E0,-1.438064575E-1,-1.817553788E-1,-1.410102248E-1
1.835718028E0,-1.448716968E-1,-1.753639877E-1,-1.303578913E-1
1.837731883E0,-1.459369212E-1,-1.657768935E-1,-1.175750941E-1
1.839745737E0,-1.438064575E-1,-1.529940963E-1,-1.058575287E-1
1.841753914E0,-1.448716968E-1,-1.380808353E-1,-9.627043456E-2
1.843762456E0,-1.395455301E-1,-1.242327988E-1,-8.881380409E-2
1.845771258E0,-1.374150664E-1,-1.103847697E-1,-8.029194176E-2
1.847780685E0,-1.310236603E-1,-9.227581322E-2,-7.496577501E-2
1.849790789E0,-1.267627329E-1,-7.310161740E-2,-7.177007198E-2
1.851801466E0,-1.171756312E-1,-5.392742157E-2,-6.750914454E-2
1.853812924E0,-1.097190008E-1,-3.262276202E-2,-6.431344151E-2
1.855825112E0,-1.022623703E-1,-1.025286783E-2,-5.792204663E-2
1.857838133E0,-9.267527610E-2,8.921326138E-3,-5.579157919E-2
1.859851831E0,-8.308817446E-2,2.916075476E-2,-4.940018058E-2
1.861865893E0,-7.350108027E-2,4.620448127E-2,-4.620448127E-2
1.863880476E0,-6.604444981E-2,6.431344151E-2,-4.087831825E-2
1.865895424E0,-5.432688445E-2,8.135717362E-2,-3.661738336E-2
1.867910685E0,-4.687025398E-2,9.840089828E-2,-3.022598661E-2
1.869926049E0,-3.941362351E-2,1.101184636E-1,-2.489982173E-2
1.871937924E0,-2.876129188E-2,1.175750941E-1,-2.063889056E-2
1.873949956E0,-2.130465955E-2,1.229012609E-1,-1.744319126E-2
1.875962091E0,-1.491326280E-2,1.250317246E-1,-1.318225823E-2
1.877974383E0,-1.171756350E-2,1.239664927E-1,-1.105179265E-2
1.879986778E0,-1.065232977E-2,1.250317246E-1,-8.921326138E-3
1.881998601E0,-7.456631400E-3,1.260969639E-1,-7.856093347E-3
1.884010581E0,-7.456631400E-3,1.250317246E-1,-7.856093347E-3
1.886022664E0,-6.391398143E-3,1.250317246E-1,-8.921326138E-3
1.888034903E0,-7.456631400E-3,1.218360290E-1,-1.105179265E-2
1.890047247E0,-8.521864191E-3,1.197055578E-1,-1.211702544E-2
1.892059591E0,-9.587096982E-3,1.186403260E-1,-1.105179265E-2
1.894071987E0,-8.521864191E-3,1.186403260E-1,-1.211702544E-2
1.896084383E0,-8.521864191E-3,1.218360290E-1,-1.211702544E-2
1.898096883E0,-1.065232977E-2,1.207707971E-1,-1.211702544E-2
1.900109435E0,-1.597849466E-2,1.239664927E-1,-1.105179265E-2
1.902122039E0,-1.278279629E-2,1.250317246E-1,-9.986559860E-3
1.904134643E0,-1.597849466E-2,1.207707971E-1,-8.921326138E-3
1.906144956E0,-1.597849466E-2,1.175750941E-1,-6.790860556E-3
1.908155424E0,-1.917419396E-2,1.154446304E-1,-5.725627299E-3
1.910166101E0,-2.023942769E-2,1.154446304E-1,-3.595161485E-3
1.912177039E0,-2.450035885E-2,1.101184636E-1,-3.595161485E-3
1.914188289E0,-2.343512699E-2,1.111836955E-1,-1.464695437E-3
1.916199695E0,-2.450035885E-2,1.111836955E-1,-3.994623839E-4
1.918211466E0,-2.556559257E-2,1.079879999E-1,6.657706108E-4
1.920223601E0,-2.663082629E-2,1.005313694E-1,2.796236658E-3
1.922236101E0,-2.663082629E-2,9.840089828E-2,6.657706108E-4
1.924248914E0,-1.597849466E-2,9.307473898E-2,-7.856093347E-3
1.926261778E0,1.065233024E-3,8.774857223E-2,-1.850842312E-2
1.928274903E0,2.356828004E-2,7.496577501E-2,-2.916075476E-2
1.930288237E0,3.528584540E-2,6.111774594E-2,-3.555215150E-2
1.932301726E0,4.913387448E-2,4.833494872E-2,-3.981308267E-2
1.934315320E0,5.872096866E-2,4.407401755E-2,-4.194355011E-2
1.936324799E0,6.191666797E-2,3.981308267E-2,-3.981308267E-2
1.938334591E0,6.191666797E-2,3.981308267E-2,-3.768261895E-2
1.940344747E0,6.085143611E-2,4.726971686E-2,-3.448691964E-2
1.942355372E0,5.872096866E-2,4.833494872E-2,-3.129122034E-2
1.944366258E0,6.298190355E-2,5.046541616E-2,-2.916075476E-2
1.946377612E0,5.872096866E-2,4.940018058E-2,-2.489982173E-2
1.948389331E0,5.126433820E-2,4.620448127E-2,-1.850842312E-2
1.950401570E0,5.126433820E-2,4.726971686E-2,-1.637795754E-2
1.952414122E0,4.806863889E-2,4.407401755E-2,-1.211702544E-2
1.954427143E0,4.487293959E-2,4.087831825E-2,-1.105179265E-2
1.956440424E0,4.700340703E-2,3.981308267E-2,-1.211702544E-2
1.958454122E0,5.019910634E-2,3.768261895E-2,-1.105179265E-2
1.960468133E0,5.552527308E-2,3.768261895E-2,-1.424749196E-2
1.962482403E0,5.872096866E-2,3.448691964E-2,-1.424749196E-2
1.964495112E0,6.830807030E-2,3.661738336E-2,-1.424749196E-2
1.966507768E0,7.576470077E-2,3.448691964E-2,-1.637795754E-2
1.968520581E0,8.854749799E-2,3.448691964E-2,-1.637795754E-2
1.970533497E0,9.919982404E-2,3.235645220E-2,-1.957365684E-2
1.972546518E0,1.098521575E-1,2.916075476E-2,-1.850842312E-2
1.974559539E0,1.268958896E-1,2.596505545E-2,-1.850842312E-2
1.976568966E0,1.375482082E-1,2.063889056E-2,-1.957365684E-2
1.978578653E0,1.513962448E-1,1.744319126E-2,-1.744319126E-2
1.980588653E0,1.641790420E-1,1.531272475E-2,-1.531272475E-2
1.982599070E0,1.737661362E-1,1.424749196E-2,-1.105179265E-2
1.984609956E0,1.833532304E-1,1.211702544E-2,-6.790860556E-3
1.986621153E0,1.876141727E-1,9.986559860E-3,-4.660394508E-3
1.988632872E0,1.908098608E-1,1.424749196E-2,-1.464695437E-3
1.990645112E0,1.929403245E-1,1.531272475E-2,2.796236658E-3
1.992657820E0,1.908098608E-1,2.063889056E-2,4.926702939E-3
1.994670945E0,1.897446364E-1,2.703028731E-2,1.025286783E-2
1.996684278E0,1.822880059E-1,3.235645220E-2,1.238333434E-2
1.998697976E0,1.801575422E-1,3.874785081E-2,1.451379992E-2
2.000711935E0,1.727008969E-1,4.407401755E-2,1.770949923E-2
2.002726101E0,1.641790420E-1,4.833494872E-2,2.197043039E-2
2.004740372E0,1.535267085E-1,5.366111174E-2,2.197043039E-2
2.006751206E0,1.439396143E-1,6.005251035E-2,2.516612969E-2
2.008762299E0,1.300915778E-1,6.431344151E-2,2.516612969E-2
2.010773601E0,1.205044836E-1,6.324820966E-2,2.729659714E-2
2.012785164E0,1.119826213E-1,6.537867337E-2,2.623136342E-2
2.014796987E0,9.813459218E-2,6.218297780E-2,2.623136342E-2
2.016808914E0,9.280842543E-2,6.218297780E-2,2.729659714E-2
2.018821153E0,8.002562821E-2,6.005251035E-2,2.836182900E-2
2.020833653E0,6.937330216E-2,6.005251035E-2,3.155753016E-2
2.022846414E0,5.978620425E-2,5.579157919E-2,3.368799388E-2
2.024859331E0,4.913387448E-2,5.046541616E-2,3.581846133E-2
2.026872299E0,3.954677656E-2,5.046541616E-2,3.581846133E-2
2.028885372E0,3.209014609E-2,4.620448127E-2,3.901416063E-2
2.030898497E0,1.930734888E-2,4.407401755E-2,4.007939249E-2
2.032911674E0,9.587096982E-3,3.874785081E-2,4.007939249E-2
2.034924851E0,1.065233024E-3,3.448691964E-2,3.901416063E-2
2.036932820E0,-8.521864191E-3,2.809552103E-2,3.794892505E-2
2.038941153E0,-2.023942769E-2,2.596505545E-2,3.901416063E-2
2.040949956E0,-2.769605815E-2,2.596505545E-2,3.901416063E-2
2.042959331E0,-3.728315607E-2,2.703028731E-2,3.901416063E-2
2.044969383E0,-4.473978654E-2,2.596505545E-2,4.007939249E-2
2.046980008E0,-5.219641700E-2,3.022598661E-2,3.901416063E-2
2.048991414E0,-5.858781561E-2,3.235645220E-2,3.794892505E-2
2.051003549E0,-6.497921795E-2,3.448691964E-2,3.688369319E-2
2.053016414E0,-7.137060910E-2,3.555215150E-2,3.475322574E-2
2.055029956E0,-7.776200771E-2,3.661738336E-2,3.581846133E-2
2.057043966E0,-8.095771074E-2,3.768261895E-2,3.475322574E-2
2.059058497E0,-8.628387749E-2,4.087831825E-2,3.794892505E-2
2.061073393E0,-8.734910935E-2,4.407401755E-2,3.794892505E-2
2.063088601E0,-9.267527610E-2,4.300878197E-2,4.327509180E-2
2.065103966E0,-9.161003679E-2,4.300878197E-2,4.540555924E-2
2.067115841E0,-9.374050796E-2,4.940018058E-2,4.966649041E-2
2.069127872E0,-9.480573982E-2,5.259587988E-2,5.179695413E-2
2.071140060E0,-9.480573982E-2,5.579157919E-2,5.605788901E-2
2.073152351E0,-9.054480493E-2,6.005251035E-2,5.605788901E-2
2.075164747E0,-8.841434121E-2,6.111774594E-2,5.712312087E-2
2.077175997E0,-8.628387749E-2,6.324820966E-2,6.031882018E-2
2.079187456E0,-8.521863818E-2,6.644391268E-2,6.138405204E-2
2.081199122E0,-8.202294260E-2,6.431344151E-2,6.457975507E-2
2.083210945E0,-7.776200771E-2,6.857437640E-2,6.777545065E-2
2.085222976E0,-6.924014539E-2,7.177007198E-2,7.097115368E-2
2.087235112E0,-6.071828306E-2,7.496577501E-2,7.310161740E-2
2.089247456E0,-5.432688445E-2,7.496577501E-2,7.629731297E-2
2.091259799E0,-4.580501840E-2,8.029194176E-2,7.629731297E-2
2.093272351E0,-3.728315607E-2,8.135717362E-2,7.736254483E-2
2.095285060E0,-2.982652560E-2,8.242240548E-2,7.629731297E-2
2.097297664E0,-1.917419396E-2,8.242240548E-2,7.736254483E-2
2.099310424E0,-1.171756350E-2,7.922670245E-2,7.629731297E-2
2.101323289E0,-6.391398143E-3,8.135717362E-2,7.629731297E-2
2.103333601E0,0.000000000E0,7.922670245E-2,7.949301600E-2
2.105344122E0,6.391398143E-3,7.816147059E-2,7.842778414E-2
2.107354799E0,1.065232977E-2,7.709623873E-2,7.842778414E-2
2.109365633E0,1.185071748E-2,7.709623873E-2,7.736254483E-2
2.111376674E0,1.398118306E-2,7.922670245E-2,7.523208112E-2
2.113387976E0,1.611164957E-2,7.922670245E-2,7.416684926E-2
2.115399539E0,1.611164957E-2,7.709623873E-2,7.097115368E-2
2.117411466E0,1.504641678E-2,7.709623873E-2,6.990591437E-2
2.119423862E0,9.587096982E-3,7.177007198E-2,6.457975507E-2
2.121436518E0,1.065232977E-2,7.070484012E-2,6.244928762E-2
2.123449591E0,5.326164886E-3,6.644391268E-2,6.244928762E-2
2.125463028E0,1.065233024E-3,5.898727849E-2,5.712312087E-2
2.127476622E0,-5.326164886E-3,5.046541616E-2,5.499265343E-2
2.129490476E0,-8.521864191E-3,4.513924941E-2,5.179695413E-2
2.131504070E0,-1.384802908E-2,4.087831825E-2,4.753602296E-2
2.133517768E0,-1.491326280E-2,3.448691964E-2,4.647079110E-2
2.135531466E0,-1.810896210E-2,2.809552103E-2,4.327509180E-2
2.137541674E0,-2.450035885E-2,2.489982173E-2,4.114462435E-2
2.139552091E0,-2.663082629E-2,1.957365684E-2,4.114462435E-2
2.141562560E0,-2.982652560E-2,1.318225823E-2,4.114462435E-2
2.143573341E0,-3.302222490E-2,9.986559860E-3,4.114462435E-2
2.145584487E0,-3.302222490E-2,1.318225823E-2,4.114462435E-2
2.147595893E0,-3.515268862E-2,9.986559860E-3,4.220985994E-2
2.149607716E0,-3.408745676E-2,1.211702544E-2,4.220985994E-2
2.151619747E0,-3.302222490E-2,9.986559860E-3,4.327509180E-2
2.153632143E0,-3.195698932E-2,1.637795754E-2,4.327509180E-2
2.155644903E0,-2.769605815E-2,1.957365684E-2,4.327509180E-2
2.157658028E0,-2.023942769E-2,2.489982173E-2,4.220985994E-2
2.159671414E0,-1.278279629E-2,2.809552103E-2,4.327509180E-2
2.161684799E0,-6.391398143E-3,3.022598661E-2,4.220985994E-2
2.163698341E0,2.130466048E-3,3.448691964E-2,4.220985994E-2
2.165711987E0,1.291595027E-2,3.555215150E-2,4.220985994E-2
2.167724278E0,2.037258074E-2,3.555215150E-2,4.007939249E-2
2.169736622E0,3.315537795E-2,3.235645220E-2,4.007939249E-2
2.171746935E0,4.380770773E-2,3.129122034E-2,3.794892505E-2
2.173757456E0,5.659050494E-2,2.809552103E-2,3.794892505E-2
2.175768081E0,6.511236727E-2,2.276935615E-2,3.475322574E-2
2.177779122E0,7.469946891E-2,1.850842312E-2,3.262276202E-2
2.179790528E0,8.109086752E-2,1.318225823E-2,3.155753016E-2
2.181802143E0,8.854749799E-2,8.921326138E-3,2.729659714E-2
2.183814174E0,9.387365729E-2,3.595161485E-3,2.516612969E-2
2.185826622E0,1.023955271E-1,1.464695437E-3,2.197043039E-2
2.187839278E0,1.077216864E-1,-1.731003635E-3,1.983996481E-2
2.189852247E0,1.151783243E-1,-1.731003635E-3,1.664426550E-2
2.191865320E0,1.215697154E-1,-5.991935730E-3,1.557903271E-2
2.193878653E0,1.247654185E-1,-4.926702939E-3,1.557903271E-2
2.195892143E0,1.322220564E-1,-2.796236658E-3,1.451379992E-2
2.197905841E0,1.407439113E-1,-1.731003635E-3,1.344856713E-2
2.199919591E0,1.450048387E-1,-6.657706108E-4,1.344856713E-2
2.201929747E0,1.503310055E-1,-1.731003635E-3,1.344856713E-2
2.203940164E0,1.545919478E-1,-1.731003635E-3,1.238333434E-2
2.205950841E0,1.620485783E-1,3.994623839E-4,1.344856713E-2
2.207961883E0,1.695052087E-1,-6.657706108E-4,1.238333434E-2
2.209973289E0,1.769618392E-1,3.994623839E-4,1.344856713E-2
2.211984851E0,1.865489334E-1,1.464695437E-3,1.451379992E-2
2.213996831E0,1.961360276E-1,4.660394508E-3,1.451379992E-2
2.216009174E0,2.067883611E-1,6.790860556E-3,1.770949923E-2
2.218021935E0,2.163754553E-1,1.105179265E-2,1.877473295E-2
2.220035008E0,2.323539555E-1,1.424749196E-2,2.303566411E-2
2.222048393E0,2.419410497E-1,1.637795754E-2,2.516612969E-2
2.224061987E0,2.547238469E-1,1.957365684E-2,2.729659714E-2
2.226075737E0,2.685718834E-1,1.744319126E-2,2.729659714E-2
2.228089591E0,2.813546658E-1,2.063889056E-2,3.155753016E-2
2.230103445E0,2.930722237E-1,2.170412242E-2,3.155753016E-2
2.232116466E0,3.015941083E-1,1.850842312E-2,3.368799388E-2
2.234128549E0,3.143768907E-1,1.424749196E-2,3.368799388E-2
2.236136310E0,3.228987455E-1,9.986559860E-3,3.262276202E-2
2.238144383E0,3.271597028E-1,4.660394508E-3,3.049229458E-2
2.240152924E0,3.346163332E-1,-1.731003635E-3,2.836182900E-2
2.242162091E0,3.378120363E-1,-9.187635034E-3,2.729659714E-2
2.244171935E0,3.410077095E-1,-1.451379992E-2,2.410089783E-2
2.246182403E0,3.452686667E-1,-1.877473295E-2,1.770949923E-2
2.248193706E0,3.442034125E-1,-2.410089783E-2,1.557903271E-2
2.250205789E0,3.442034125E-1,-3.155753016E-2,1.344856713E-2
2.252218653E0,3.442034125E-1,-3.368799388E-2,1.344856713E-2
2.254232195E0,3.442034125E-1,-3.794892505E-2,1.131810062E-2
2.256246153E0,3.420729637E-1,-3.688369319E-2,1.238333434E-2
2.258260633E0,3.399424851E-1,-4.007939249E-2,1.344856713E-2
2.260275528E0,3.410077095E-1,-3.901416063E-2,1.664426550E-2
2.262290737E0,3.431381881E-1,-3.688369319E-2,1.770949923E-2
2.264306101E0,3.463338912E-1,-3.368799388E-2,1.983996481E-2
2.266317403E0,3.484643400E-1,-3.262276202E-2,2.197043039E-2
2.268328966E0,3.548557460E-1,-2.942706272E-2,2.410089783E-2
2.270340737E0,3.601819277E-1,-2.729659714E-2,2.516612969E-2
2.272352768E0,3.665733039E-1,-2.197043039E-2,2.729659714E-2
2.274365008E0,3.729647100E-1,-1.664426550E-2,2.942706272E-2
2.276378185E0,3.804213405E-1,-1.131810062E-2,3.049229458E-2
2.278390945E0,3.889431953E-1,-7.057168987E-3,3.155753016E-2
2.280402820E0,3.995955288E-1,-5.991935730E-3,3.155753016E-2
2.282414747E0,4.102478623E-1,-5.991935730E-3,3.262276202E-2
2.284426831E0,4.230306745E-1,-2.796236658E-3,3.368799388E-2
2.286438966E0,4.379439354E-1,-2.796236658E-3,3.475322574E-2
2.288451101E0,4.539224207E-1,-9.187635034E-3,3.368799388E-2
2.290463393E0,4.720313847E-1,-1.131810062E-2,3.581846133E-2
2.292475893E0,4.890751243E-1,-1.451379992E-2,3.688369319E-2
2.294488549E0,5.125102401E-1,-1.877473295E-2,3.688369319E-2
2.296500997E0,5.306192040E-1,-2.197043039E-2,3.794892505E-2
2.298513601E0,5.529890656E-1,-2.197043039E-2,3.901416063E-2
2.300526310E0,5.764242411E-1,-2.410089783E-2,4.007939249E-2
2.302539070E0,6.019898057E-1,-2.516612969E-2,4.114462435E-2
2.304551883E0,6.296858788E-1,-2.197043039E-2,4.114462435E-2
2.306560945E0,6.541862488E-1,-2.090519853E-2,4.540555924E-2
2.308570320E0,6.861432195E-1,-1.983996481E-2,4.434032366E-2
2.310580060E0,7.159697413E-1,-2.410089783E-2,4.434032366E-2
2.312590268E0,7.500572205E-1,-2.836182900E-2,4.114462435E-2
2.314600997E0,7.830794454E-1,-3.368799388E-2,3.901416063E-2
2.316612143E0,8.139711618E-1,-4.114462435E-2,3.581846133E-2
2.318623914E0,8.523195982E-1,-4.647079110E-2,3.155753016E-2
2.320636258E0,8.874722719E-1,-5.499265343E-2,2.836182900E-2
2.322649174E0,9.236901999E-1,-6.031882018E-2,2.410089783E-2
2.324662612E0,9.609733224E-1,-6.351451576E-2,1.983996481E-2
2.326676258E0,9.993217587E-1,-6.777545065E-2,1.344856713E-2
2.328690268E0,1.037670135E0,-6.351451576E-2,7.057168987E-3
2.330704539E0,1.078148961E0,-5.818835273E-2,6.657706108E-4
2.332719018E0,1.125019193E0,-4.860125855E-2,-6.790860556E-3
2.334733601E0,1.170824289E0,-3.262276202E-2,-1.424749196E-2
2.336744539E0,1.217694521E0,-1.770949923E-2,-2.489982173E-2
2.338755633E0,1.267760396E0,-6.657706108E-4,-3.235645220E-2
2.340766935E0,1.324217796E0,1.531272475E-2,-4.300878197E-2
2.342778497E0,1.376414180E0,1.211702544E-2,-5.259587988E-2
2.344790268E0,1.431806326E0,-3.861469682E-3,-6.750914454E-2
2.346802143E0,1.487198472E0,-1.557903271E-2,-7.816147059E-2
2.348814331E0,1.546851516E0,-2.729659714E-2,-8.881380409E-2
2.350826726E0,1.604374051E0,-2.729659714E-2,-9.627043456E-2
2.352839383E0,1.665092349E0,-2.516612969E-2,-1.005313694E-1
2.354852195E0,1.724745393E0,-1.664426550E-2,-1.037270650E-1
2.356864956E0,1.782268047E0,-2.796236658E-3,-1.037270650E-1
2.358877872E0,1.841921091E0,1.850842312E-2,-1.037270650E-1
2.360890893E0,1.902639389E0,4.726971686E-2,-1.069227681E-1
2.362904018E0,1.963357568E0,9.307473898E-2,-1.058575287E-1
2.364917143E0,2.024075985E0,1.452711523E-1,-1.026618332E-1
2.366926570E0,2.082663774E0,1.900109351E-1,-9.733566642E-2
2.368936258E0,2.139121056E0,2.240983993E-1,-8.774857223E-2
2.370946258E0,2.190252304E0,2.475335300E-1,-7.922670245E-2
2.372956674E0,2.233926773E0,2.752295732E-1,-6.857437640E-2
2.374967508E0,2.277601242E0,3.029256463E-1,-5.685681105E-2
2.376978653E0,2.315949678E0,3.348826170E-1,-4.620448127E-2
2.378990320E0,2.350037098E0,3.583177626E-1,-3.768261895E-2
2.381002456E0,2.380928993E0,3.764267266E-1,-2.916075476E-2
2.383015112E0,2.408625126E0,3.870790601E-1,-2.170412242E-2
2.385028185E0,2.432060242E0,3.956009150E-1,-1.531272475E-2
2.387041466E0,2.453364849E0,3.966661394E-1,-1.211702544E-2
2.389055112E0,2.475734711E0,3.956009150E-1,-8.921326138E-3
2.391068914E0,2.489582777E0,3.881442845E-1,-5.725627299E-3
2.393082924E0,2.502365589E0,3.785571754E-1,-1.464695437E-3
2.395096935E0,2.511952639E0,3.742962480E-1,1.731003635E-3
2.397107403E0,2.517278671E0,3.689700961E-1,4.926702939E-3
2.399118133E0,2.520474434E0,3.604482114E-1,9.187635034E-3
2.401129122E0,2.523670197E0,3.529915810E-1,1.451379992E-2
2.403140476E0,2.520474434E0,3.402087986E-1,1.770949923E-2
2.405152195E0,2.515148401E0,3.327521682E-1,2.516612969E-2
2.407164070E0,2.511952639E0,3.178389072E-1,3.155753016E-2
2.409176310E0,2.505561113E0,3.093170524E-1,3.794892505E-2
2.411188862E0,2.502365589E0,2.880123854E-1,4.327509180E-2
2.413201726E0,2.498104572E0,2.699034214E-1,4.860125855E-2
2.415214851E0,2.492778540E0,2.539249361E-1,5.392742157E-2
2.417228028E0,2.487452269E0,2.432725877E-1,6.031882018E-2
2.419241414E0,2.481060982E0,2.326202542E-1,6.564498693E-2
2.421254903E0,2.473604202E0,2.294245660E-1,7.097115368E-2
2.423268445E0,2.467212915E0,2.262288630E-1,7.416684926E-2
2.425281987E0,2.465082407E0,2.209026963E-1,7.629731297E-2
2.427290633E0,2.461886644E0,2.102503628E-1,7.842778414E-2
2.429299539E0,2.466147661E0,2.017285079E-1,7.736254483E-2
2.431308862E0,2.469343185E0,1.889457107E-1,7.310161740E-2
2.433318706E0,2.475734711E0,1.719019860E-1,6.990591437E-2
2.435329122E0,2.485321760E0,1.527277827E-1,6.244928762E-2
2.437340008E0,2.491713285E0,1.250317246E-1,5.712312087E-2
2.439351570E0,2.505561113E0,9.946613014E-2,4.860125855E-2
2.441363706E0,2.515148401E0,7.070484012E-2,4.114462435E-2
2.443376258E0,2.528996468E0,3.981308267E-2,3.368799388E-2
2.445389174E0,2.544974804E0,9.986559860E-3,2.197043039E-2
2.447402508E0,2.562018633E0,-2.090519853E-2,9.187635034E-3
2.449416310E0,2.580127478E0,-5.179695413E-2,-4.660394508E-3
2.451430320E0,2.599301815E0,-7.842778414E-2,-2.170412242E-2
2.453444643E0,2.618475914E0,-1.082543060E-1,-3.874785081E-2
2.455459174E0,2.638715267E0,-1.338198930E-1,-5.472634733E-2
2.457472716E0,2.663215637E0,-1.583202630E-1,-7.390054315E-2
2.459486362E0,2.688781261E0,-1.828206182E-1,-8.987903595E-2
2.461496414E0,2.715412140E0,-2.041252851E-1,-1.047922969E-1
2.463506726E0,2.739912510E0,-2.201037705E-1,-1.165098622E-1
2.465517351E0,2.765478134E0,-2.371474952E-1,-1.282274276E-1
2.467528185E0,2.792109013E0,-2.477998286E-1,-1.378145218E-1
2.469539435E0,2.823000669E0,-2.627131045E-1,-1.452711523E-1
2.471550893E0,2.851762056E0,-2.701697350E-1,-1.516625583E-1
2.473562768E0,2.880523205E0,-2.776263654E-1,-1.591191888E-1
2.475575060E0,2.903958321E0,-2.829525173E-1,-1.655105799E-1
2.477587612E0,2.934850216E0,-2.840177417E-1,-1.687062830E-1
2.479600581E0,2.961480856E0,-2.818872929E-1,-1.750976741E-1
2.481613706E0,2.988111734E0,-2.744306624E-1,-1.772281379E-1
2.483627143E0,3.013677359E0,-2.584521770E-1,-1.772281379E-1
2.485640789E0,3.040308237E0,-2.371474952E-1,-1.814890802E-1
2.487654435E0,3.064808607E0,-2.158428431E-1,-1.857500076E-1
2.489668185E0,3.089308977E0,-1.913424879E-1,-1.836195439E-1
2.491679383E0,3.108483076E0,-1.742987484E-1,-1.804238409E-1
2.493690737E0,3.132983446E0,-1.529940963E-1,-1.750976741E-1
2.495702299E0,3.148962021E0,-1.295589656E-1,-1.655105799E-1
2.497713966E0,3.163875341E0,-1.039933711E-1,-1.537930220E-1
2.499725893E0,3.179853678E0,-8.481918275E-2,-1.410102248E-1
2.501737872E0,3.193701744E0,-7.842778414E-2,-1.260969639E-1
2.503750112E0,3.206484556E0,-8.055824786E-2,-1.122489274E-1
2.505762403E0,3.215006351E0,-8.801487833E-2,-1.005313694E-1
2.507775008E0,3.227789164E0,-9.547150880E-2,-8.668334037E-2
2.509787820E0,3.233115435E0,-1.029281393E-1,-7.816147059E-2
2.511800528E0,3.243767738E0,-1.061238423E-1,-7.070484012E-2
2.513813393E0,3.254420042E0,-1.114500016E-1,-6.857437640E-2
2.515826362E0,3.262941837E0,-1.210371032E-1,-6.431344151E-2
2.517839435E0,3.271463871E0,-1.348851323E-1,-5.792204663E-2
2.519848237E0,3.275724649E0,-1.476679295E-1,-5.579157919E-2
2.521857195E0,3.279985666E0,-1.572550237E-1,-5.046541616E-2
2.523866570E0,3.285311699E0,-1.721682847E-1,-4.620448127E-2
2.525876518E0,3.289572716E0,-1.849510819E-1,-4.087831825E-2
2.527887091E0,3.290637970E0,-1.998643428E-1,-3.448691964E-2
2.529898341E0,3.291703224E0,-2.158428431E-1,-3.129122034E-2
2.531910060E0,3.291703224E0,-2.286256403E-1,-2.703028731E-2
2.533922456E0,3.293833733E0,-2.403431982E-1,-2.276935615E-2
2.535935476E0,3.287442207E0,-2.531259954E-1,-2.276935615E-2
2.537949122E0,3.284246683E0,-2.563216984E-1,-2.063889056E-2
2.539963237E0,3.271463871E0,-2.584521770E-1,-1.744319126E-2
2.541977560E0,3.262941837E0,-2.573869228E-1,-1.531272475E-2
2.543992195E0,3.244832993E0,-2.531259954E-1,-1.424749196E-2
2.546006987E0,3.225658655E0,-2.477998286E-1,-1.211702544E-2
2.548021935E0,3.207549810E0,-2.424736619E-1,-1.318225823E-2
2.550036206E0,3.181984186E0,-2.339518070E-1,-1.424749196E-2
2.552043445E0,3.159614325E0,-2.211690098E-1,-1.424749196E-2
2.554051049E0,3.134048700E0,-2.073209733E-1,-1.637795754E-2
2.556059174E0,3.107417822E0,-1.934729517E-1,-2.170412242E-2
2.558067976E0,3.086113214E0,-1.796249151E-1,-2.596505545E-2
2.560077508E0,3.061612844E0,-1.668421179E-1,-3.022598661E-2
2.562087872E0,3.040308237E0,-1.466026902E-1,-3.768261895E-2
2.564099122E0,3.015807867E0,-1.338198930E-1,-4.194355011E-2
2.566111466E0,2.995568514E0,-1.210371032E-1,-4.726971686E-2
2.568124695E0,2.975328922E0,-1.061238423E-1,-5.153064802E-2
2.570138706E0,2.960415840E0,-9.014534205E-2,-5.472634733E-2
2.572153445E0,2.943372011E0,-7.842778414E-2,-5.898727849E-2
2.574168706E0,2.926328182E0,-7.310161740E-2,-6.111774594E-2
2.576184174E0,2.916741133E0,-6.884068251E-2,-6.324820966E-2
2.578199695E0,2.909284592E0,-8.162347972E-2,-6.537867337E-2
2.580215268E0,2.903958321E0,-1.082543060E-1,-6.750914454E-2
2.582230841E0,2.906088829E0,-1.252980381E-1,-6.537867337E-2
2.584242664E0,2.901827812E0,-1.189066395E-1,-6.324820966E-2
2.586249331E0,2.898632288E0,-9.973244369E-2,-5.685681105E-2
2.588256466E0,2.894371271E0,-7.203638554E-2,-4.833494872E-2
2.590264174E0,2.885849476E0,-4.860125855E-2,-4.087831825E-2
2.592272664E0,2.875197172E0,-2.516612969E-2,-3.342168778E-2
2.594281987E0,2.867740393E0,-8.122402243E-3,-2.489982173E-2
2.596292039E0,2.860283852E0,5.725627299E-3,-1.850842312E-2
2.598303081E0,2.854957581E0,1.744319126E-2,-1.424749196E-2
2.600315112E0,2.844305277E0,2.596505545E-2,-1.318225823E-2
2.602328133E0,2.838979244E0,3.022598661E-2,-1.424749196E-2
2.604342039E0,2.832587719E0,3.342168778E-2,-1.637795754E-2
2.606357351E0,2.826196432E0,3.022598661E-2,-1.637795754E-2
2.608373081E0,2.824065924E0,3.448691964E-2,-1.531272475E-2
2.610389018E0,2.819804907E0,3.874785081E-2,-8.921326138E-3
2.612405060E0,2.814478874E0,3.555215150E-2,-3.595161485E-3
2.614421206E0,2.808087349E0,3.342168778E-2,3.861469682E-3
2.616431883E0,2.807022095E0,2.916075476E-2,7.057168987E-3
2.618442820E0,2.802761316E0,1.850842312E-2,1.025286783E-2
2.620454018E0,2.796369791E0,5.725627299E-3,1.131810062E-2
2.622465528E0,2.789978504E0,-9.187635034E-3,1.451379992E-2
2.624477351E0,2.783586979E0,-2.197043039E-2,1.451379992E-2
2.626489331E0,2.771869421E0,-3.475322574E-2,1.557903271E-2
2.628501674E0,2.755891085E0,-4.327509180E-2,1.344856713E-2
2.630514278E0,2.737782001E0,-5.392742157E-2,1.131810062E-2
2.632527143E0,2.715412140E0,-6.777545065E-2,9.187635034E-3
2.634540216E0,2.691977024E0,-7.097115368E-2,8.122402243E-3
2.636553341E0,2.664280891E0,-7.949301600E-2,7.057168987E-3
2.638565997E0,2.634454489E0,-8.162347972E-2,1.025286783E-2
2.640578758E0,2.601432085E0,-8.268871158E-2,1.025286783E-2
2.642591622E0,2.571605682E0,-7.842778414E-2,1.238333434E-2
2.644604539E0,2.538583517E0,-8.162347972E-2,1.238333434E-2
2.646614226E0,2.505561113E0,-8.588441461E-2,1.344856713E-2
2.648624226E0,2.474669456E0,-9.334104508E-2,1.344856713E-2
2.650634539E0,2.440582037E0,-1.018629074E-1,1.451379992E-2
2.652645268E0,2.411820650E0,-1.103847697E-1,1.344856713E-2
2.654656414E0,2.384124756E0,-1.199718714E-1,1.451379992E-2
2.656667924E0,2.358559132E0,-1.316894293E-1,1.770949923E-2
2.658679956E0,2.336189270E0,-1.370155960E-1,2.090519853E-2
2.660692456E0,2.315949678E0,-1.497983932E-1,2.303566411E-2
2.662705424E0,2.303166866E0,-1.561897993E-1,2.410089783E-2
2.664718758E0,2.287188530E0,-1.625811905E-1,2.729659714E-2
2.666732195E0,2.277601242E0,-1.689725816E-1,2.942706272E-2
2.668745893E0,2.268014193E0,-1.721682847E-1,3.262276202E-2
2.670759747E0,2.270144701E0,-1.711030602E-1,3.368799388E-2
2.672773706E0,2.271209955E0,-1.679073572E-1,3.901416063E-2
2.674787716E0,2.271209955E0,-1.636464298E-1,4.434032366E-2
2.676796466E0,2.277601242E0,-1.561897993E-1,4.753602296E-2
2.678805528E0,2.285058022E0,-1.487331539E-1,5.179695413E-2
2.680815008E0,2.294645071E0,-1.434070021E-1,5.392742157E-2
2.682825008E0,2.302101612E0,-1.423417628E-1,6.031882018E-2
2.684835581E0,2.309558392E0,-1.359503716E-1,6.351451576E-2
2.686846622E0,2.318080187E0,-1.274285018E-1,6.671021879E-2
2.688858341E0,2.321275949E0,-1.221023351E-1,6.884068251E-2
2.690870685E0,2.323406458E0,-1.135804728E-1,7.203638554E-2
2.692883601E0,2.322341204E0,-1.018629074E-1,7.310161740E-2
2.694897039E0,2.318080187E0,-8.908011019E-2,7.203638554E-2
2.696910789E0,2.313819170E0,-7.310161740E-2,7.097115368E-2
2.698924956E0,2.304232121E0,-5.818835273E-2,7.203638554E-2
2.700939383E0,2.291449308E0,-3.794892505E-2,6.990591437E-2
2.702954018E0,2.276536226E0,-2.090519853E-2,6.990591437E-2
2.704968758E0,2.259492397E0,-7.057168987E-3,6.990591437E-2
2.706978966E0,2.243513823E0,3.595161485E-3,6.884068251E-2
2.708989435E0,2.222209215E0,8.921326138E-3,6.671021879E-2
2.711000216E0,2.199839354E0,1.105179265E-2,6.671021879E-2
2.713011310E0,2.179600000E0,1.637795754E-2,6.777545065E-2
2.715022768E0,2.158295155E0,1.850842312E-2,6.884068251E-2
2.717034383E0,2.133794785E0,2.170412242E-2,7.097115368E-2
2.719046414E0,2.112490177E0,2.170412242E-2,7.310161740E-2
2.721058810E0,2.094381332E0,1.957365684E-2,7.523208112E-2
2.723071570E0,2.082663774E0,1.637795754E-2,7.842778414E-2
2.725084643E0,2.073076725E0,4.660394508E-3,8.055824786E-2
2.727097820E0,2.068815708E0,-4.926702939E-3,8.481918275E-2
2.729111258E0,2.067750454E0,-1.557903271E-2,8.908011019E-2
2.731124851E0,2.072011471E0,-2.836182900E-2,9.547150880E-2
2.733138549E0,2.077337503E0,-4.434032366E-2,1.029281393E-1
2.735152247E0,2.085859299E0,-6.138405204E-2,1.125152409E-1
2.737161883E0,2.094381332E0,-7.949301600E-2,1.221023351E-1
2.739171778E0,2.105033636E0,-9.760197252E-2,1.338198930E-1
2.741181987E0,2.113555431E0,-1.221023351E-1,1.423417628E-1
2.743192560E0,2.122077227E0,-1.444722265E-1,1.508636326E-1
2.745203549E0,2.125272989E0,-1.689725816E-1,1.583202630E-1
2.747214799E0,2.131664515E0,-1.913424879E-1,1.636464298E-1
2.749226570E0,2.132729769E0,-2.126471400E-1,1.668421179E-1
2.751238810E0,2.131664515E0,-2.339518070E-1,1.679073572E-1
2.753251518E0,2.123142481E0,-2.531259954E-1,1.689725816E-1
2.755264643E0,2.111424923E0,-2.701697350E-1,1.668421179E-1
2.757277924E0,2.095446587E0,-2.829525173E-1,1.657768935E-1
2.759291518E0,2.076272249E0,-2.957353294E-1,1.604507267E-1
2.761305372E0,2.052837133E0,-3.053224087E-1,1.583202630E-1
2.763319383E0,2.030467272E0,-3.127790391E-1,1.529940963E-1
2.765333497E0,2.002771139E0,-3.170399666E-1,1.476679295E-1
2.767344903E0,1.977205634E0,-3.191704452E-1,1.434070021E-1
2.769356466E0,1.952705264E0,-3.202356696E-1,1.380808353E-1
2.771368081E0,1.930335402E0,-3.266270757E-1,1.359503716E-1
2.773379695E0,1.901574135E0,-3.319532275E-1,1.338198930E-1
2.775391310E0,1.880269408E0,-3.362141848E-1,1.338198930E-1
2.777403341E0,1.863225698E0,-3.415403366E-1,1.327546686E-1
2.779415581E0,1.841921091E0,-3.447360396E-1,1.327546686E-1
2.781427820E0,1.823812127E0,-3.511274457E-1,1.359503716E-1
2.783440268E0,1.809964061E0,-3.553883731E-1,1.359503716E-1
2.785452872E0,1.798246503E0,-3.585840762E-1,1.370155960E-1
2.787465164E0,1.785463691E0,-3.585840762E-1,1.380808353E-1
2.789477612E0,1.781202793E0,-3.639102280E-1,1.391460598E-1
2.791489539E0,1.782268047E0,-3.703016341E-1,1.380808353E-1
2.793501622E0,1.778007030E0,-3.777582645E-1,1.359503716E-1
2.795513862E0,1.774811387E0,-3.830844164E-1,1.348851323E-1
2.797526101E0,1.776941895E0,-3.884105980E-1,1.338198930E-1
2.799538497E0,1.775876641E0,-3.905410469E-1,1.338198930E-1
2.801550112E0,1.773746133E0,-3.937367499E-1,1.327546686E-1
2.803561935E0,1.772680879E0,-3.916063011E-1,1.306242049E-1
2.805573966E0,1.768419981E0,-3.873453438E-1,1.306242049E-1
2.807586049E0,1.770550489E0,-3.905410469E-1,1.284937263E-1
2.809598341E0,1.769485235E0,-3.884105980E-1,1.284937263E-1
2.811610633E0,1.769485235E0,-3.862801194E-1,1.274285018E-1
2.813623081E0,1.764159083E0,-3.820191920E-1,1.263632625E-1
2.815635685E0,1.758832932E0,-3.745625615E-1,1.252980381E-1
2.817647508E0,1.753506660E0,-3.607145250E-1,1.263632625E-1
2.819659487E0,1.747115254E0,-3.447360396E-1,1.252980381E-1
2.821671362E0,1.739658713E0,-3.234313726E-1,1.274285018E-1
2.823683393E0,1.731136799E0,-3.074528873E-1,1.274285018E-1
2.825695581E0,1.718353987E0,-2.978657782E-1,1.274285018E-1
2.827707976E0,1.701310277E0,-2.914743721E-1,1.263632625E-1
2.829720528E0,1.687462211E0,-2.786915898E-1,1.263632625E-1
2.831732508E0,1.673614264E0,-2.648435533E-1,1.252980381E-1
2.833744591E0,1.655505300E0,-2.499302924E-1,1.252980381E-1
2.835755893E0,1.640591979E0,-2.371474952E-1,1.199718714E-1
2.837767456E0,1.627809167E0,-2.307561040E-1,1.178414002E-1
2.839779226E0,1.612895966E0,-2.307561040E-1,1.146457046E-1
2.841791049E0,1.602243662E0,-2.296908647E-1,1.114500016E-1
2.843803133E0,1.589460850E0,-2.307561040E-1,1.061238423E-1
2.845815424E0,1.582004189E0,-2.371474952E-1,1.029281393E-1
2.847827872E0,1.573482275E0,-2.392779738E-1,9.973244369E-2
2.849840528E0,1.560699582E0,-2.446041405E-1,9.760197252E-2
2.851853185E0,1.551112413E0,-2.488650680E-1,9.440627694E-2
2.853865997E0,1.541525364E0,-2.541912198E-1,9.334104508E-2
2.855878914E0,1.530873060E0,-2.648435533E-1,8.908011019E-2
2.857891935E0,1.522351146E0,-2.648435533E-1,8.694964647E-2
2.859905008E0,1.518090248E0,-2.669740319E-1,8.481918275E-2
2.861914331E0,1.507437825E0,-2.754958868E-1,8.481918275E-2
2.863923914E0,1.502111673E0,-2.797568142E-1,7.949301600E-2
2.865933862E0,1.495720267E0,-2.840177417E-1,7.949301600E-2
2.867944278E0,1.489328980E0,-2.861482203E-1,7.842778414E-2
2.869955164E0,1.480807066E0,-2.861482203E-1,7.416684926E-2
2.871966414E0,1.476546168E0,-2.840177417E-1,6.884068251E-2
2.873978237E0,1.464828610E0,-2.765611112E-1,6.457975507E-2
2.875990633E0,1.458437204E0,-2.754958868E-1,6.244928762E-2
2.878003549E0,1.448850036E0,-2.669740319E-1,5.712312087E-2
2.880016935E0,1.440328240E0,-2.573869228E-1,5.605788901E-2
2.882030528E0,1.431806326E0,-2.446041405E-1,5.179695413E-2
2.884044435E0,1.424349666E0,-2.392779738E-1,4.966649041E-2
2.886058601E0,1.417958260E0,-2.371474952E-1,4.966649041E-2
2.888073028E0,1.410501719E0,-2.286256403E-1,4.647079110E-2
2.890087508E0,1.401979804E0,-2.275604010E-1,4.540555924E-2
2.892101987E0,1.395588398E0,-2.232994735E-1,4.434032366E-2
2.894114018E0,1.388131738E0,-2.211690098E-1,4.434032366E-2
2.896126310E0,1.377479434E0,-2.211690098E-1,4.434032366E-2
2.898138601E0,1.371088028E0,-2.211690098E-1,4.327509180E-2
2.900149851E0,1.362566233E0,-2.169080675E-1,4.220985994E-2
2.902161153E0,1.352979064E0,-2.115819156E-1,4.327509180E-2
2.904172508E0,1.341261506E0,-2.115819156E-1,4.327509180E-2
2.906182351E0,1.330609202E0,-2.041252851E-1,4.114462435E-2
2.908192508E0,1.318891644E0,-1.934729517E-1,4.007939249E-2
2.910202976E0,1.305043578E0,-1.828206182E-1,3.688369319E-2
2.912213810E0,1.292260766E0,-1.785596907E-1,3.581846133E-2
2.914225060E0,1.278412819E0,-1.679073572E-1,3.368799388E-2
2.916236518E0,1.267760396E0,-1.572550237E-1,3.262276202E-2
2.918248393E0,1.258173347E0,-1.423417628E-1,3.155753016E-2
2.920260685E0,1.251781940E0,-1.284937263E-1,2.942706272E-2
2.922273393E0,1.247521043E0,-1.114500016E-1,2.836182900E-2
2.924286466E0,1.244325280E0,-9.973244369E-2,2.729659714E-2
2.926299643E0,1.244325280E0,-9.440627694E-2,2.942706272E-2
2.928313133E0,1.241129637E0,-9.014534205E-2,2.942706272E-2
2.930326831E0,1.241129637E0,-9.014534205E-2,3.155753016E-2
2.932340685E0,1.238999128E0,-8.908011019E-2,3.262276202E-2
2.934354591E0,1.235803485E0,-9.227581322E-2,3.475322574E-2
2.936369331E0,1.230477333E0,-9.334104508E-2,3.475322574E-2
2.938376258E0,1.231542587E0,-8.801487833E-2,3.475322574E-2
2.940383341E0,1.221955419E0,-8.908011019E-2,3.368799388E-2
2.942390789E0,1.219824910E0,-8.908011019E-2,3.475322574E-2
2.944398966E0,1.215564013E0,-8.588441461E-2,3.262276202E-2
2.946407872E0,1.204911709E0,-8.908011019E-2,3.262276202E-2
2.948417768E0,1.198520303E0,-8.908011019E-2,3.262276202E-2
2.950428653E0,1.189998388E0,-8.375394344E-2,3.262276202E-2
2.952440581E0,1.180411339E0,-7.842778414E-2,3.368799388E-2
2.954453497E0,1.175085187E0,-7.097115368E-2,3.581846133E-2
2.956467195E0,1.169759035E0,-5.925358832E-2,3.475322574E-2
2.958481726E0,1.161237121E0,-5.179695413E-2,3.368799388E-2
2.960496935E0,1.154845715E0,-3.901416063E-2,3.475322574E-2
2.962512716E0,1.150584817E0,-3.049229458E-2,3.262276202E-2
2.964528862E0,1.145258665E0,-1.877473295E-2,2.942706272E-2
2.966545060E0,1.136736751E0,-1.025286783E-2,3.049229458E-2
2.968561310E0,1.130345345E0,-1.731003635E-3,3.049229458E-2
2.970575112E0,1.127149701E0,6.790860556E-3,3.155753016E-2
2.972587768E0,1.125019193E0,2.063889056E-2,3.262276202E-2
2.974599903E0,1.121823549E0,3.022598661E-2,3.155753016E-2
2.976606883E0,1.121823549E0,4.194355011E-2,3.262276202E-2
2.978614278E0,1.123953938E0,5.685681105E-2,3.155753016E-2
2.980622247E0,1.126084447E0,6.750914454E-2,3.262276202E-2
2.982630945E0,1.131410599E0,8.029194176E-2,3.368799388E-2
2.984640476E0,1.132475853E0,8.774857223E-2,3.368799388E-2
2.986650685E0,1.139932513E0,9.946613014E-2,3.688369319E-2
2.988661831E0,1.143128157E0,1.047922969E-1,3.688369319E-2
2.990673914E0,1.146323919E0,1.069227681E-1,3.688369319E-2
2.992686883E0,1.150584817E0,1.079879999E-1,3.581846133E-2
2.994700685E0,1.149519563E0,1.090532318E-1,3.368799388E-2
2.996715008E0,1.150584817E0,1.037270650E-1,3.262276202E-2
2.998729956E0,1.145258665E0,9.733566642E-2,3.049229458E-2
3.000745372E0,1.136736751E0,8.668334037E-2,2.729659714E-2
3.002761101E0,1.128214955E0,7.390054315E-2,2.410089783E-2
3.004776987E0,1.118627787E0,6.111774594E-2,2.090519853E-2
3.006789122E0,1.103714585E0,4.726971686E-2,1.664426550E-2
3.008801466E0,1.088801265E0,3.129122034E-2,1.344856713E-2
3.010813966E0,1.069627166E0,1.637795754E-2,5.991935730E-3
3.012826622E0,1.048322439E0,-1.731003635E-3,1.731003635E-3
3.014839383E0,1.027017832E0,-1.025286783E-2,-3.595161485E-3
3.016850789E0,9.993217587E-1,-2.303566411E-2,-8.921326138E-3
3.018862403E0,9.716256857E-1,-3.049229458E-2,-1.211702544E-2
3.020874174E0,9.439296126E-1,-3.901416063E-2,-1.531272475E-2
3.022886153E0,9.141030908E-1,-4.966649041E-2,-1.850842312E-2
3.024898289E0,8.853418231E-1,-5.392742157E-2,-2.063889056E-2
3.026910424E0,8.544500470E-1,-6.031882018E-2,-2.276935615E-2
3.028922768E0,8.256887197E-1,-6.671021879E-2,-2.596505545E-2
3.030935268E0,7.979927063E-1,-6.990591437E-2,-2.489982173E-2
3.032947924E0,7.649704814E-1,-7.949301600E-2,-2.276935615E-2
3.034960737E0,7.394048572E-1,-8.268871158E-2,-2.170412242E-2
3.036972195E0,7.149044871E-1,-8.481918275E-2,-1.850842312E-2
3.038983810E0,6.893389225E-1,-9.121058136E-2,-1.637795754E-2
3.040995581E0,6.680342555E-1,-8.801487833E-2,-1.424749196E-2
3.043007560E0,6.467295885E-1,-9.227581322E-2,-9.986559860E-3
3.045019695E0,6.296858788E-1,-9.121058136E-2,-8.921326138E-3
3.047031831E0,6.169030666E-1,-9.334104508E-2,-3.595161485E-3
3.049044174E0,6.009245515E-1,-9.866721183E-2,2.796236658E-3
3.051056206E0,5.892069936E-1,-9.760197252E-2,8.122402243E-3
3.053068445E0,5.785546899E-1,-9.547150880E-2,1.025286783E-2
3.055080841E0,5.732285380E-1,-9.440627694E-2,1.451379992E-2
3.057093237E0,5.679023266E-1,-9.227581322E-2,1.983996481E-2
3.059105789E0,5.647066832E-1,-8.908011019E-2,2.303566411E-2
3.061118445E0,5.604457259E-1,-8.375394344E-2,2.516612969E-2
3.063131206E0,5.604457259E-1,-7.842778414E-2,2.729659714E-2
3.065144018E0,5.583152771E-1,-8.055824786E-2,2.836182900E-2
3.067154539E0,5.572500229E-1,-7.416684926E-2,3.049229458E-2
3.069165268E0,5.540543199E-1,-7.097115368E-2,3.155753016E-2
3.071176258E0,5.572500229E-1,-6.138405204E-2,3.262276202E-2
3.073187560E0,5.497934222E-1,-5.712312087E-2,2.942706272E-2
3.075199174E0,5.476629138E-1,-4.647079110E-2,2.729659714E-2
3.077210945E0,5.423367620E-1,-3.581846133E-2,2.623136342E-2
3.079223081E0,5.370106101E-1,-2.516612969E-2,2.516612969E-2
3.081235528E0,5.316844583E-1,-1.451379992E-2,2.197043039E-2
3.083248289E0,5.210320950E-1,-5.991935730E-3,1.983996481E-2
3.085261310E0,5.125102401E-1,4.660394508E-3,1.557903271E-2
3.087274383E0,5.050535798E-1,1.637795754E-2,1.131810062E-2
3.089287664E0,4.933360517E-1,2.383458801E-2,1.025286783E-2
3.091299539E0,4.837489426E-1,3.235645220E-2,5.991935730E-3
3.093311622E0,4.720313847E-1,4.300878197E-2,1.731003635E-3
3.095323914E0,4.581833482E-1,5.259587988E-2,-2.529928461E-3
3.097336206E0,4.496614933E-1,6.218297780E-2,-5.725627299E-3
3.099348653E0,4.368786812E-1,7.283531129E-2,-9.986559860E-3
3.101361206E0,4.209001958E-1,8.242240548E-2,-1.211702544E-2
3.103373081E0,4.049217105E-1,8.987903595E-2,-1.531272475E-2
3.105384278E0,3.889431953E-1,9.413997084E-2,-1.850842312E-2
3.107395528E0,3.718994856E-1,9.200949967E-2,-2.170412242E-2
3.109407143E0,3.548557460E-1,9.307473898E-2,-2.489982173E-2
3.111418810E0,3.378120363E-1,9.413997084E-2,-2.703028731E-2
3.113430789E0,3.197030723E-1,9.200949967E-2,-2.916075476E-2
3.115443028E0,3.037245572E-1,8.774857223E-2,-2.916075476E-2
3.117455372E0,2.909417748E-1,8.774857223E-2,-3.129122034E-2
3.119467976E0,2.728328109E-1,8.348763734E-2,-3.342168778E-2
3.121480581E0,2.611152530E-1,7.922670245E-2,-3.555215150E-2
3.123493393E0,2.504629195E-1,7.177007198E-2,-3.555215150E-2
3.125506362E0,2.398105860E-1,7.177007198E-2,-3.555215150E-2
3.127519018E0,2.291582525E-1,6.644391268E-2,-3.768261895E-2
3.129531778E0,2.227668613E-1,6.111774594E-2,-3.555215150E-2
3.131543028E0,2.174406946E-1,5.579157919E-2,-3.555215150E-2
3.133554487E0,2.067883611E-1,4.833494872E-2,-3.235645220E-2
3.135566206E0,2.057231218E-1,4.726971686E-2,-3.022598661E-2
3.137578028E0,2.003969699E-1,4.300878197E-2,-2.703028731E-2
3.139590060E0,1.972012669E-1,3.981308267E-2,-2.276935615E-2
3.141602091E0,1.950708032E-1,3.768261895E-2,-1.744319126E-2
3.143614331E0,1.908098608E-1,3.448691964E-2,-1.424749196E-2
3.145626778E0,1.897446364E-1,3.768261895E-2,-1.318225823E-2
3.147639278E0,1.854836941E-1,3.768261895E-2,-1.105179265E-2
3.149651935E0,1.780270636E-1,3.768261895E-2,-1.105179265E-2
3.151663914E0,1.705704331E-1,3.981308267E-2,-8.921326138E-3
3.153676101E0,1.620485783E-1,4.300878197E-2,-6.790860556E-3
3.155688445E0,1.588528752E-1,4.833494872E-2,-7.856093347E-3
3.157700789E0,1.503310055E-1,4.940018058E-2,-3.595161485E-3
3.159713289E0,1.418091506E-1,5.472634733E-2,-7.856093347E-3
3.161724747E0,1.322220564E-1,5.792204663E-2,-5.725627299E-3
3.163736414E0,1.205044836E-1,6.005251035E-2,-7.856093347E-3
3.165748237E0,1.130478531E-1,6.218297780E-2,-6.790860556E-3
3.167760372E0,1.023955271E-1,6.750914454E-2,-7.856093347E-3
3.169772716E0,9.493889660E-2,7.283531129E-2,-8.921326138E-3
3.171785060E0,9.067796171E-2,7.922670245E-2,-9.986559860E-3
3.173797560E0,8.535179496E-2,8.668334037E-2,-1.105179265E-2
3.175810216E0,7.789516449E-2,8.987903595E-2,-1.211702544E-2
3.177822872E0,7.150376588E-2,9.520520270E-2,-1.318225823E-2
3.179835633E0,6.617759913E-2,9.520520270E-2,-1.105179265E-2
3.181846466E0,6.085143611E-2,9.733566642E-2,-1.211702544E-2
3.183857508E0,5.659050494E-2,1.005313694E-1,-1.211702544E-2
3.185868810E0,5.126433820E-2,1.037270650E-1,-1.211702544E-2
3.187880424E0,4.487293959E-2,1.037270650E-1,-1.105179265E-2
3.189892351E0,3.954677656E-2,1.037270650E-1,-1.105179265E-2
3.191904383E0,2.995967865E-2,1.047922969E-1,-1.211702544E-2
3.193916726E0,2.037258074E-2,1.069227681E-1,-1.318225823E-2
3.195929331E0,1.185071748E-2,1.101184636E-1,-1.424749196E-2
3.197942247E0,2.130466048E-3,1.101184636E-1,-1.424749196E-2
3.199955372E0,-1.065232977E-2,1.079879999E-1,-1.531272475E-2
3.201968081E0,-2.343512699E-2,1.101184636E-1,-1.744319126E-2
3.203980945E0,-3.621792421E-2,1.069227681E-1,-1.744319126E-2
3.205993914E0,-4.793548584E-2,9.840089828E-2,-1.744319126E-2
3.208006987E0,-6.071828306E-2,9.840089828E-2,-1.744319126E-2
3.210020060E0,-7.243584841E-2,8.881380409E-2,-1.531272475E-2
3.212028393E0,-8.734910935E-2,7.922670245E-2,-1.424749196E-2
3.214037039E0,-9.800143540E-2,7.070484012E-2,-1.531272475E-2
3.216046153E0,-1.075885370E-1,6.218297780E-2,-1.318225823E-2
3.218055893E0,-1.246322617E-1,4.513924941E-2,-1.105179265E-2
3.220066258E0,-1.384802908E-1,2.916075476E-2,-9.986559860E-3
3.222077299E0,-1.533935517E-1,1.957365684E-2,-9.986559860E-3
3.224089018E0,-1.704372764E-1,4.660394508E-3,-8.921326138E-3
3.226101414E0,-1.874810159E-1,-3.861469682E-3,-6.790860556E-3
3.228114435E0,-2.045247406E-1,-1.557903271E-2,-6.790860556E-3
3.230128028E0,-2.205032408E-1,-2.197043039E-2,-6.790860556E-3
3.232142143E0,-2.364817262E-1,-3.049229458E-2,-6.790860556E-3
3.234156674E0,-2.492645234E-1,-3.901416063E-2,-6.790860556E-3
3.236171310E0,-2.663082480E-1,-4.860125855E-2,-6.790860556E-3
3.238186153E0,-2.812215090E-1,-5.712312087E-2,-5.725627299E-3
3.240201049E0,-2.961347699E-1,-6.564498693E-2,-4.660394508E-3
3.242215945E0,-3.099828064E-1,-7.310161740E-2,-6.790860556E-3
3.244227560E0,-3.259612918E-1,-8.055824786E-2,-5.725627299E-3
3.246234903E0,-3.419398069E-1,-8.801487833E-2,-5.725627299E-3
3.248242612E0,-3.568530679E-1,-9.653674066E-2,-3.595161485E-3
3.250250841E0,-3.738967776E-1,-1.039933711E-1,-4.660394508E-3
3.252259799E0,-3.877448142E-1,-1.082543060E-1,-3.595161485E-3
3.254269539E0,-4.058537781E-1,-1.125152409E-1,-3.595161485E-3
3.256280008E0,-4.250279665E-1,-1.189066395E-1,-2.529928461E-3
3.258291362E0,-4.410064816E-1,-1.242327988E-1,-2.529928461E-3
3.260303549E0,-4.644415975E-1,-1.252980381E-1,-1.464695437E-3
3.262316570E0,-4.814853370E-1,-1.252980381E-1,-2.529928461E-3
3.264330320E0,-5.027899742E-1,-1.295589656E-1,-1.464695437E-3
3.266344643E0,-5.240946412E-1,-1.306242049E-1,-3.595161485E-3
3.268359383E0,-5.464645624E-1,-1.316894293E-1,-4.660394508E-3
3.270374383E0,-5.656387210E-1,-1.338198930E-1,-3.595161485E-3
3.272389539E0,-5.858781338E-1,-1.316894293E-1,-5.725627299E-3
3.274404695E0,-6.114437580E-1,-1.348851323E-1,-8.921326138E-3
3.276418081E0,-6.348788738E-1,-1.327546686E-1,-1.424749196E-2
3.278431570E0,-6.561835408E-1,-1.338198930E-1,-1.531272475E-2
3.280445112E0,-6.796186566E-1,-1.348851323E-1,-2.063889056E-2
3.282458653E0,-7.051842809E-1,-1.338198930E-1,-2.276935615E-2
3.284470685E0,-7.296846509E-1,-1.327546686E-1,-2.703028731E-2
3.286478341E0,-7.552502155E-1,-1.284937263E-1,-3.022598661E-2
3.288486362E0,-7.818810344E-1,-1.274285018E-1,-3.448691964E-2
3.290494851E0,-8.053161502E-1,-1.274285018E-1,-3.661738336E-2
3.292503966E0,-8.340774775E-1,-1.221023351E-1,-3.981308267E-2
3.294513810E0,-8.575125933E-1,-1.178414002E-1,-4.300878197E-2
3.296524278E0,-8.884043694E-1,-1.125152409E-1,-4.513924941E-2
3.298535581E0,-9.097089767E-1,-1.039933711E-1,-4.726971686E-2
3.300547716E0,-9.363398552E-1,-9.653674066E-2,-4.833494872E-2
3.302560633E0,-9.555140138E-1,-8.694964647E-2,-5.046541616E-2
3.304574278E0,-9.832100868E-1,-7.523208112E-2,-5.259587988E-2
3.306588393E0,-1.002384305E0,-6.671021879E-2,-5.472634733E-2
3.308603081E0,-1.026884675E0,-5.818835273E-2,-5.472634733E-2
3.310618185E0,-1.046058774E0,-4.327509180E-2,-5.685681105E-2
3.312633601E0,-1.069494009E0,-3.368799388E-2,-5.792204663E-2
3.314649174E0,-1.086537719E0,-1.770949923E-2,-6.005251035E-2
3.316660997E0,-1.105711937E0,-4.926702939E-3,-6.111774594E-2
3.318673028E0,-1.124886036E0,5.725627299E-3,-6.005251035E-2
3.320685164E0,-1.139799356E0,2.063889056E-2,-6.431344151E-2
3.322697456E0,-1.158973575E0,3.448691964E-2,-6.750914454E-2
3.324709903E0,-1.176017284E0,4.726971686E-2,-6.963960826E-2
3.326721726E0,-1.197321892E0,6.111774594E-2,-7.283531129E-2
3.328733706E0,-1.218626618E0,7.816147059E-2,-7.603100687E-2
3.330745841E0,-1.235670328E0,9.520520270E-2,-8.242240548E-2
3.332758133E0,-1.258040190E0,1.101184636E-1,-8.668334037E-2
3.334770581E0,-1.280410051E0,1.218360290E-1,-9.307473898E-2
3.336782612E0,-1.302780032E0,1.356840581E-1,-9.733566642E-2
3.338794851E0,-1.330476046E0,1.420754492E-1,-1.026618332E-1
3.340807247E0,-1.360302567E0,1.495320797E-1,-1.079879999E-1
3.342819747E0,-1.385868192E0,1.527277827E-1,-1.143793985E-1
3.344832351E0,-1.417825103E0,1.548582464E-1,-1.207707971E-1
3.346843237E0,-1.450847387E0,1.601844132E-1,-1.260969639E-1
3.348854331E0,-1.484934807E0,1.633801162E-1,-1.314231306E-1
3.350865685E0,-1.523283243E0,1.633801162E-1,-1.378145218E-1
3.352877299E0,-1.561631560E0,1.601844132E-1,-1.410102248E-1
3.354889174E0,-1.597849488E0,1.527277827E-1,-1.452711523E-1
3.356901206E0,-1.638328433E0,1.431406885E-1,-1.537930220E-1
3.358913549E0,-1.676676750E0,1.367492825E-1,-1.601844132E-1
3.360926153E0,-1.715025187E0,1.271621883E-1,-1.644453406E-1
3.362938966E0,-1.745916963E0,1.197055578E-1,-1.697715074E-1
3.364951935E0,-1.777873874E0,1.133141592E-1,-1.740324497E-1
3.366964903E0,-1.805570006E0,1.111836955E-1,-1.772281379E-1
3.368978028E0,-1.835396528E0,1.122489274E-1,-1.814890802E-1
3.370991206E0,-1.855635881E0,1.175750941E-1,-1.878804713E-1
3.373004435E0,-1.879070997E0,1.292926520E-1,-1.900109351E-1
3.375017560E0,-1.904636621E0,1.367492825E-1,-1.910761744E-1
3.377025372E0,-1.919549942E0,1.537930220E-1,-1.921414137E-1
3.379033549E0,-1.937658906E0,1.687062830E-1,-1.964023411E-1
3.381042195E0,-1.949376464E0,1.857500076E-1,-1.974675655E-1
3.383051466E0,-1.960028768E0,2.027937323E-1,-1.974675655E-1
3.385061414E0,-1.971746325E0,2.209026963E-1,-1.974675655E-1
3.387071935E0,-1.980268240E0,2.422073632E-1,-1.953371018E-1
3.389083237E0,-1.986659646E0,2.624467909E-1,-1.964023411E-1
3.391095320E0,-1.997311950E0,2.837514579E-1,-1.942718774E-1
3.393108185E0,-2.004768610E0,3.050560951E-1,-1.921414137E-1
3.395121570E0,-2.015420914E0,3.252955377E-1,-1.900109351E-1
3.397135424E0,-2.021812201E0,3.423392773E-1,-1.900109351E-1
3.399149851E0,-2.034595013E0,3.604482114E-1,-1.868152469E-1
3.401164695E0,-2.045247316E0,3.796224296E-1,-1.878804713E-1
3.403179851E0,-2.053769350E0,3.956009150E-1,-1.857500076E-1
3.405195164E0,-2.065486908E0,4.115794003E-1,-1.846847683E-1
3.407208237E0,-2.072943449E0,4.264926612E-1,-1.846847683E-1
3.409221414E0,-2.082530499E0,4.403406978E-1,-1.825543046E-1
3.411234643E0,-2.089987278E0,4.509930313E-1,-1.814890802E-1
3.413247924E0,-2.098509073E0,4.616453648E-1,-1.814890802E-1
3.415260528E0,-2.104900360E0,4.669715166E-1,-1.793586165E-1
3.417269226E0,-2.111291885E0,4.733629227E-1,-1.761629134E-1
3.419278185E0,-2.123009443E0,4.797543287E-1,-1.729672104E-1
3.421287508E0,-2.133661747E0,4.861457348E-1,-1.697715074E-1
3.423297299E0,-2.143248796E0,4.872109592E-1,-1.665758193E-1
3.425307612E0,-2.159227371E0,4.850804806E-1,-1.633801162E-1
3.427318393E0,-2.174140692E0,4.797543287E-1,-1.591191888E-1
3.429329851E0,-2.193314791E0,4.744281471E-1,-1.548582464E-1
3.431341935E0,-2.214619398E0,4.701672196E-1,-1.495320797E-1
3.433354643E0,-2.235924006E0,4.595148861E-1,-1.442059278E-1
3.435367872E0,-2.257228851E0,4.488625526E-1,-1.399449855E-1
3.437382403E0,-2.282794476E0,4.296883643E-1,-1.335535944E-1
3.439397091E0,-2.310490370E0,4.083836973E-1,-1.271621883E-1
3.441411831E0,-2.338186502E0,3.849485815E-1,-1.218360290E-1
3.443426726E0,-2.370143414E0,3.561872840E-1,-1.165098622E-1
3.445441674E0,-2.401035309E0,3.274259865E-1,-1.101184636E-1
3.447451622E0,-2.434057474E0,2.975994647E-1,-1.058575287E-1
3.449461778E0,-2.469210148E0,2.699034214E-1,-1.026618332E-1
3.451471987E0,-2.504362822E0,2.379464209E-1,-1.005313694E-1
3.453482560E0,-2.539515495E0,2.102503628E-1,-9.840089828E-2
3.455493549E0,-2.573602915E0,1.814890802E-1,-9.733566642E-2
3.457504851E0,-2.611951351E0,1.601844132E-1,-9.733566642E-2
3.459516622E0,-2.644973516E0,1.399449855E-1,-9.840089828E-2
3.461528653E0,-2.679060936E0,1.260969639E-1,-9.946613014E-2
3.463541153E0,-2.712083340E0,1.165098622E-1,-9.946613014E-2
3.465554070E0,-2.739779234E0,1.069227681E-1,-1.015966013E-1
3.467567195E0,-2.770671129E0,9.946613014E-2,-1.037270650E-1
3.469580633E0,-2.791975737E0,9.840089828E-2,-1.122489274E-1
3.471594122E0,-2.809019566E0,9.733566642E-2,-1.175750941E-1
3.473607820E0,-2.824997902E0,9.733566642E-2,-1.250317246E-1
3.475621622E0,-2.836715460E0,1.037270650E-1,-1.324883550E-1
3.477634435E0,-2.844172239E0,1.133141592E-1,-1.388797611E-1
3.479647299E0,-2.848433018E0,1.282274276E-1,-1.452711523E-1
3.481657195E0,-2.853759289E0,1.452711523E-1,-1.527277827E-1
3.483667351E0,-2.858020306E0,1.644453406E-1,-1.548582464E-1
3.485677820E0,-2.855889797E0,1.825543046E-1,-1.569887102E-1
3.487688549E0,-2.854824543E0,2.017285079E-1,-1.580539495E-1
3.489699695E0,-2.850563526E0,2.177069932E-1,-1.569887102E-1
3.491711101E0,-2.847367764E0,2.315550297E-1,-1.569887102E-1
3.493722976E0,-2.837780714E0,2.432725877E-1,-1.569887102E-1
3.495735320E0,-2.827128410E0,2.571206093E-1,-1.537930220E-1
3.497747976E0,-2.815410852E0,2.730991244E-1,-1.527277827E-1
3.499760997E0,-2.800497532E0,2.858819067E-1,-1.495320797E-1
3.501774174E0,-2.783453941E0,2.944037914E-1,-1.442059278E-1
3.503787664E0,-2.761084080E0,3.029256463E-1,-1.388797611E-1
3.505801466E0,-2.735518456E0,3.039908707E-1,-1.303578913E-1
3.507815476E0,-2.708887577E0,3.082517982E-1,-1.218360290E-1
3.509829591E0,-2.677995920E0,3.071865737E-1,-1.090532318E-1
3.511839331E0,-2.642843246E0,3.007951677E-1,-9.733566642E-2
3.513849331E0,-2.607690334E0,2.922733128E-1,-8.561810106E-2
3.515859643E0,-2.571472406E0,2.805557549E-1,-7.070484012E-2
3.517870216E0,-2.528863192E0,2.688381970E-1,-5.579157919E-2
3.519881206E0,-2.489449501E0,2.549901605E-1,-3.981308267E-2
3.521892456E0,-2.444709778E0,2.400768995E-1,-2.170412242E-2
3.523904226E0,-2.401035309E0,2.294245660E-1,-4.660394508E-3
3.525916466E0,-2.361621618E0,2.177069932E-1,1.131810062E-2
3.527929226E0,-2.315816641E0,2.038589716E-1,2.729659714E-2
3.529942403E0,-2.275337696E0,1.942718774E-1,4.434032366E-2
3.531955789E0,-2.235924006E0,1.814890802E-1,5.818835273E-2
3.533969487E0,-2.195445299E0,1.655105799E-1,7.097115368E-2
3.535983445E0,-2.160292625E0,1.505973190E-1,8.375394344E-2
3.537997403E0,-2.126205206E0,1.356840581E-1,9.760197252E-2
3.540011414E0,-2.095313311E0,1.186403260E-1,1.071890742E-1
3.542021831E0,-2.069747686E0,1.058575287E-1,1.167761683E-1
3.544032456E0,-2.039921284E0,9.413997084E-2,1.284937263E-1
3.546043341E0,-2.022877455E0,7.922670245E-2,1.380808353E-1
3.548054383E0,-2.005833864E0,6.750914454E-2,1.476679295E-1
3.550065789E0,-1.995181441E0,5.259587988E-2,1.551245600E-1
3.552077612E0,-1.988790035E0,3.768261895E-2,1.615159512E-1
3.554089799E0,-1.982398629E0,2.170412242E-2,1.657768935E-1
3.556102351E0,-1.983463883E0,3.994623839E-4,1.700378209E-1
3.558115268E0,-1.987724781E0,-1.877473295E-2,1.689725816E-1
3.560128445E0,-1.995181441E0,-4.327509180E-2,1.700378209E-1
3.562141883E0,-2.007964134E0,-6.671021879E-2,1.668421179E-1
3.564155476E0,-2.021812201E0,-8.694964647E-2,1.657768935E-1
3.566167820E0,-2.038856030E0,-1.082543060E-1,1.604507267E-1
3.568180372E0,-2.063356400E0,-1.306242049E-1,1.551245600E-1
3.570193028E0,-2.087856770E0,-1.497983932E-1,1.508636326E-1
3.572205789E0,-2.114487648E0,-1.721682847E-1,1.423417628E-1
3.574218653E0,-2.144314051E0,-1.902772486E-1,1.370155960E-1
3.576227976E0,-2.174140692E0,-2.019948065E-1,1.284937263E-1
3.578237768E0,-2.207162857E0,-2.030600458E-1,1.178414002E-1
3.580247924E0,-2.244446039E0,-1.913424879E-1,1.082543060E-1
3.582258497E0,-2.291316271E0,-1.497983932E-1,8.908011019E-2
3.584269539E0,-2.394643784E0,-2.729659714E-2,5.392742157E-2
3.586280893E0,-2.481992960E0,3.022598661E-2,2.516612969E-2
3.588292768E0,-2.556559324E0,6.324820966E-2,2.796236658E-3
3.590305164E0,-2.630060434E0,8.668334037E-2,-1.531272475E-2
3.592318028E0,-2.692909002E0,1.037270650E-1,-3.022598661E-2
3.594331310E0,-2.747236013E0,1.111836955E-1,-4.300878197E-2
3.596344747E0,-2.798367262E0,1.101184636E-1,-5.366111174E-2
3.598358341E0,-2.842041731E0,9.307473898E-2,-6.431344151E-2
3.600372247E0,-2.880390167E0,7.283531129E-2,-7.283531129E-2
3.602386206E0,-2.912347078E0,5.153064802E-2,-8.135717362E-2
3.604397976E0,-2.943238735E0,2.596505545E-2,-8.668334037E-2
3.606409747E0,-2.963478327E0,9.986559860E-3,-8.987903595E-2
3.608421778E0,-2.984782934E0,-2.796236658E-3,-9.094426781E-2
3.610434018E0,-2.998631001E0,-1.344856713E-2,-9.094426781E-2
3.612446466E0,-3.011413813E0,-1.451379992E-2,-8.987903595E-2
3.614459070E0,-3.018870354E0,-1.451379992E-2,-8.881380409E-2
3.616471674E0,-3.024196625E0,-1.451379992E-2,-8.668334037E-2
3.618484435E0,-3.027392149E0,-1.557903271E-2,-8.561810106E-2
3.620497299E0,-3.028457403E0,-1.344856713E-2,-8.668334037E-2
3.622510268E0,-3.024196625E0,-1.451379992E-2,-8.774857223E-2
3.624523237E0,-3.016739845E0,-1.877473295E-2,-8.774857223E-2
3.626532247E0,-3.009283304E0,-2.090519853E-2,-8.987903595E-2
3.628541570E0,-2.995435238E0,-3.049229458E-2,-9.200949967E-2
3.630551258E0,-2.981587172E0,-4.007939249E-2,-9.307473898E-2
3.632561466E0,-2.963478327E0,-4.966649041E-2,-9.520520270E-2
3.634572195E0,-2.944303989E0,-6.244928762E-2,-9.413997084E-2
3.636583289E0,-2.921934128E0,-7.203638554E-2,-9.094426781E-2
3.638595008E0,-2.897433758E0,-8.162347972E-2,-8.987903595E-2
3.640607299E0,-2.873998642E0,-9.653674066E-2,-8.774857223E-2
3.642620164E0,-2.849498272E0,-1.103847697E-1,-8.135717362E-2
3.644633497E0,-2.823932648E0,-1.189066395E-1,-8.029194176E-2
3.646647039E0,-2.797302008E0,-1.316894293E-1,-7.603100687E-2
3.648660997E0,-2.772801638E0,-1.391460598E-1,-7.390054315E-2
3.650675216E0,-2.750431776E0,-1.497983932E-1,-7.177007198E-2
3.652689643E0,-2.728061676E0,-1.561897993E-1,-6.963960826E-2
3.654704122E0,-2.708887577E0,-1.689725816E-1,-6.750914454E-2
3.656714331E0,-2.687582970E0,-1.785596907E-1,-6.537867337E-2
3.658724799E0,-2.673734903E0,-1.956034154E-1,-6.111774594E-2
3.660735581E0,-2.663082600E0,-2.041252851E-1,-5.579157919E-2
3.662746726E0,-2.651365042E0,-2.222342342E-1,-5.153064802E-2
3.664758237E0,-2.643908262E0,-2.328865677E-1,-4.940018058E-2
3.666769956E0,-2.638582230E0,-2.477998286E-1,-4.407401755E-2
3.668782091E0,-2.634321213E0,-2.605826259E-1,-4.087831825E-2
3.670794591E0,-2.635386467E0,-2.712349594E-1,-4.087831825E-2
3.672807456E0,-2.638582230E0,-2.818872929E-1,-3.661738336E-2
3.674820633E0,-2.640712738E0,-2.925396264E-1,-3.342168778E-2
3.676833862E0,-2.643908262E0,-2.978657782E-1,-3.448691964E-2
3.678847299E0,-2.648169279E0,-3.021267056E-1,-2.916075476E-2
3.680860841E0,-2.656691074E0,-3.063876629E-1,-2.596505545E-2
3.682874487E0,-2.667343378E0,-3.106485903E-1,-2.276935615E-2
3.684888133E0,-2.679060936E0,-3.138442934E-1,-1.957365684E-2
3.686897143E0,-2.687582970E0,-3.191704452E-1,-1.531272475E-2
3.688906414E0,-2.701431036E0,-3.181052208E-1,-1.105179265E-2
3.690916049E0,-2.713148594E0,-3.191704452E-1,-5.725627299E-3
3.692926153E0,-2.729126930E0,-3.159747422E-1,6.657706108E-4
3.694936778E0,-2.744040251E0,-3.149095178E-1,5.991935730E-3
3.696947768E0,-2.758953571E0,-3.095833361E-1,1.025286783E-2
3.698959383E0,-2.768540621E0,-3.042571843E-1,1.344856713E-2
3.700971570E0,-2.783453941E0,-3.010614812E-1,2.090519853E-2
3.702984331E0,-2.790910482E0,-2.904091477E-1,2.729659714E-2
3.704997612E0,-2.799432278E0,-2.765611112E-1,3.155753016E-2
3.707011153E0,-2.805823803E0,-2.637783289E-1,3.581846133E-2
3.709025112E0,-2.807954311E0,-2.467346042E-1,4.114462435E-2
3.711039383E0,-2.806889057E0,-2.264951766E-1,4.220985994E-2
3.713053862E0,-2.804758549E0,-2.083862126E-1,4.327509180E-2
3.715068445E0,-2.802628040E0,-1.881467849E-1,4.007939249E-2
3.717079018E0,-2.793040991E0,-1.689725816E-1,4.007939249E-2
3.719089851E0,-2.782388687E0,-1.551245600E-1,3.581846133E-2
3.721100945E0,-2.770671129E0,-1.380808353E-1,3.368799388E-2
3.723112351E0,-2.751496792E0,-1.231675670E-1,3.262276202E-2
3.725124070E0,-2.733387947E0,-1.082543060E-1,2.942706272E-2
3.727135945E0,-2.715278864E0,-9.227581322E-2,2.623136342E-2
3.729148185E0,-2.692909002E0,-7.842778414E-2,2.516612969E-2
3.731160737E0,-2.668408632E0,-6.138405204E-2,2.197043039E-2
3.733173445E0,-2.644973516E0,-4.434032366E-2,1.664426550E-2
3.735186414E0,-2.619407892E0,-2.942706272E-2,1.557903271E-2
3.737199383E0,-2.590646744E0,-1.770949923E-2,1.131810062E-2
3.739212508E0,-2.561885357E0,-5.991935730E-3,9.187635034E-3
3.741225737E0,-2.533124208E0,3.994623839E-4,9.187635034E-3
3.743239070E0,-2.506493330E0,4.660394508E-3,5.991935730E-3
3.745252456E0,-2.479862452E0,7.856093347E-3,1.025286783E-2
3.747261310E0,-2.453231573E0,5.725627299E-3,9.187635034E-3
3.749270476E0,-2.428731203E0,3.994623839E-4,1.344856713E-2
3.751280060E0,-2.406361341E0,-8.122402243E-3,1.664426550E-2
3.753290164E0,-2.386121988E0,-2.090519853E-2,2.197043039E-2
3.755300841E0,-2.373339176E0,-3.901416063E-2,2.729659714E-2
3.757311935E0,-2.359491110E0,-5.605788901E-2,3.262276202E-2
3.759323653E0,-2.350969315E0,-7.416684926E-2,3.581846133E-2
3.761335945E0,-2.345643044E0,-9.760197252E-2,3.794892505E-2
3.763348810E0,-2.341382265E0,-1.157109365E-1,4.007939249E-2
3.765361987E0,-2.337121248E0,-1.370155960E-1,4.007939249E-2
3.767376778E0,-2.334990740E0,-1.593854874E-1,3.794892505E-2
3.769391674E0,-2.332860231E0,-1.849510819E-1,3.581846133E-2
3.771406570E0,-2.332860231E0,-2.094514370E-1,3.581846133E-2
3.773421570E0,-2.330729961E0,-2.350170314E-1,3.475322574E-2
3.775436570E0,-2.328599453E0,-2.573869228E-1,3.581846133E-2
3.777443497E0,-2.327534199E0,-2.797568142E-1,3.688369319E-2
3.779450789E0,-2.323273182E0,-3.031919599E-1,3.794892505E-2
3.781458445E0,-2.316881895E0,-3.213009238E-1,4.007939249E-2
3.783466883E0,-2.310490370E0,-3.383446336E-1,3.901416063E-2
3.785476153E0,-2.301968575E0,-3.575188220E-1,3.688369319E-2
3.787486258E0,-2.291316271E0,-3.745625615E-1,3.581846133E-2
3.789497351E0,-2.279598713E0,-3.937367499E-1,3.368799388E-2
3.791509226E0,-2.267881155E0,-4.118457139E-1,3.049229458E-2
3.793522039E0,-2.250837326E0,-4.235632718E-1,2.729659714E-2
3.795535737E0,-2.234858990E0,-4.331503808E-1,2.197043039E-2
3.797550112E0,-2.218880415E0,-4.374113083E-1,1.770949923E-2
3.799565164E0,-2.198641062E0,-4.374113083E-1,1.557903271E-2
3.801580528E0,-2.175205946E0,-4.310199022E-1,1.238333434E-2
3.803596310E0,-2.149640322E0,-4.214328229E-1,1.131810062E-2
3.805612299E0,-2.129400730E0,-4.097152650E-1,8.122402243E-3
3.807627039E0,-2.104900360E0,-3.958672285E-1,7.057168987E-3
3.809641778E0,-2.082530499E0,-3.809539676E-1,7.057168987E-3
3.811650008E0,-2.058030128E0,-3.628450036E-1,4.926702939E-3
3.813658549E0,-2.036725521E0,-3.458012640E-1,8.122402243E-3
3.815667560E0,-2.017551422E0,-3.276923001E-1,9.187635034E-3
3.817677039E0,-1.997311950E0,-3.138442934E-1,1.131810062E-2
3.819687143E0,-1.984529138E0,-2.999962568E-1,1.451379992E-2
3.821697768E0,-1.970681071E0,-2.904091477E-1,1.770949923E-2
3.823709122E0,-1.964289665E0,-2.765611112E-1,2.516612969E-2
3.825721206E0,-1.954702616E0,-2.691044807E-1,2.836182900E-2
3.827733862E0,-1.953637362E0,-2.627131045E-1,2.942706272E-2
3.829747195E0,-1.956833124E0,-2.563216984E-1,3.368799388E-2
3.831760945E0,-1.958963513E0,-2.541912198E-1,3.581846133E-2
3.833775216E0,-1.965354919E0,-2.499302924E-1,3.901416063E-2
3.835790008E0,-1.974941969E0,-2.520607710E-1,4.540555924E-2
3.837805112E0,-1.985594392E0,-2.531259954E-1,4.647079110E-2
3.839820424E0,-2.000507593E0,-2.563216984E-1,4.860125855E-2
3.841832299E0,-2.015420914E0,-2.637783289E-1,4.966649041E-2
3.843844331E0,-2.033529758E0,-2.723001838E-1,5.392742157E-2
3.845856518E0,-2.054834604E0,-2.786915898E-1,5.818835273E-2
3.847869018E0,-2.074008703E0,-2.957353294E-1,6.138405204E-2
3.849881674E0,-2.094248056E0,-3.063876629E-1,6.244928762E-2
3.851892820E0,-2.116617918E0,-3.149095178E-1,6.777545065E-2
3.853904174E0,-2.135792255E0,-3.181052208E-1,7.097115368E-2
3.855915737E0,-2.156031609E0,-3.234313726E-1,7.736254483E-2
3.857927403E0,-2.173075438E0,-3.244965971E-1,8.588441461E-2
3.859939331E0,-2.190119028E0,-3.170399666E-1,8.908011019E-2
3.861951310E0,-2.207162857E0,-3.149095178E-1,9.547150880E-2
3.863963601E0,-2.217815161E0,-3.117138147E-1,1.007976755E-1
3.865976153E0,-2.233793736E0,-3.095833361E-1,1.029281393E-1
3.867988966E0,-2.241250277E0,-3.021267056E-1,1.050586104E-1
3.870001935E0,-2.248706818E0,-2.968005538E-1,1.050586104E-1
3.872014747E0,-2.255098343E0,-2.946700752E-1,1.071890742E-1
3.874027716E0,-2.257228851E0,-2.893439233E-1,1.061238423E-1
3.876040789E0,-2.258294106E0,-2.829525173E-1,1.061238423E-1
3.878053966E0,-2.257228851E0,-2.723001838E-1,1.061238423E-1
3.880067143E0,-2.252967834E0,-2.659088075E-1,1.061238423E-1
3.882075476E0,-2.245511293E0,-2.531259954E-1,1.061238423E-1
3.884084122E0,-2.234858990E0,-2.414084375E-1,1.050586104E-1
3.886092976E0,-2.223141432E0,-2.307561040E-1,1.050586104E-1
3.888102456E0,-2.202901840E0,-2.190385461E-1,1.039933711E-1
3.890112560E0,-2.182662487E0,-2.062557489E-1,1.050586104E-1
3.892123393E0,-2.162423134E0,-1.945381761E-1,1.029281393E-1
3.894134956E0,-2.136857510E0,-1.838858575E-1,1.018629074E-1
3.896147039E0,-2.107030869E0,-1.753639877E-1,9.866721183E-2
3.898159643E0,-2.079334974E0,-1.668421179E-1,9.760197252E-2
3.900172924E0,-2.048443079E0,-1.604507267E-1,9.653674066E-2
3.902186831E0,-2.013290405E0,-1.572550237E-1,9.440627694E-2
3.904201258E0,-1.977072477E0,-1.508636326E-1,9.440627694E-2
3.906215893E0,-1.940854549E0,-1.487331539E-1,9.440627694E-2
3.908230841E0,-1.906767130E0,-1.423417628E-1,9.547150880E-2
3.910245945E0,-1.873744845E0,-1.402112991E-1,9.866721183E-2
3.912261101E0,-1.841787934E0,-1.380808353E-1,9.973244369E-2
3.914274903E0,-1.807700396E0,-1.295589656E-1,1.039933711E-1
3.916285060E0,-1.775743484E0,-1.199718714E-1,1.082543060E-1
3.918295372E0,-1.741655946E0,-1.125152409E-1,1.114500016E-1
3.920305841E0,-1.713959932E0,-1.039933711E-1,1.125152409E-1
3.922316570E0,-1.684133410E0,-9.866721183E-2,1.135804728E-1
3.924327560E0,-1.657502532E0,-9.440627694E-2,1.167761683E-1
3.926338653E0,-1.633002281E0,-9.866721183E-2,1.178414002E-1
3.928350164E0,-1.613828063E0,-1.039933711E-1,1.221023351E-1
3.930361987E0,-1.592523336E0,-1.093195379E-1,1.231675670E-1
3.932374122E0,-1.573349118E0,-1.178414002E-1,1.242327988E-1
3.934386414E0,-1.555240273E0,-1.210371032E-1,1.274285018E-1
3.936398862E0,-1.541392207E0,-1.338198930E-1,1.306242049E-1
3.938411466E0,-1.524348497E0,-1.434070021E-1,1.316894293E-1
3.940424383E0,-1.509435177E0,-1.540593207E-1,1.316894293E-1
3.942437560E0,-1.493456721E0,-1.657768935E-1,1.316894293E-1
3.944450945E0,-1.478543401E0,-1.742987484E-1,1.295589656E-1
3.946464487E0,-1.463630199E0,-1.881467849E-1,1.263632625E-1
3.948478133E0,-1.445521235E0,-1.998643428E-1,1.242327988E-1
3.950491778E0,-1.425281763E0,-2.126471400E-1,1.199718714E-1
3.952505424E0,-1.403977156E0,-2.254299372E-1,1.135804728E-1
3.954517351E0,-1.385868192E0,-2.403431982E-1,1.082543060E-1
3.956525581E0,-1.365628719E0,-2.477998286E-1,1.029281393E-1
3.958534122E0,-1.340063095E0,-2.595174015E-1,9.973244369E-2
3.960542872E0,-1.316627979E0,-2.691044807E-1,9.760197252E-2
3.962552195E0,-1.291062474E0,-2.733654380E-1,9.653674066E-2
3.964562195E0,-1.270823002E0,-2.733654380E-1,9.653674066E-2
3.966572716E0,-1.246322632E0,-2.691044807E-1,9.653674066E-2
3.968584018E0,-1.219691753E0,-2.563216984E-1,1.007976755E-1
3.970596101E0,-1.193060994E0,-2.414084375E-1,1.018629074E-1
3.972608966E0,-1.169625878E0,-2.264951766E-1,1.050586104E-1
3.974622508E0,-1.146190763E0,-2.062557489E-1,1.093195379E-1
3.976636466E0,-1.118494630E0,-1.870815456E-1,1.135804728E-1
3.978650945E0,-1.096124768E0,-1.647116542E-1,1.167761683E-1
3.980665789E0,-1.069494009E0,-1.455374658E-1,1.210371032E-1
3.982680945E0,-1.041797876E0,-1.199718714E-1,1.231675670E-1
3.984696206E0,-1.017297506E0,-9.760197252E-2,1.252980381E-1
3.986707456E0,-9.927971959E-1,-7.523208112E-2,1.274285018E-1
3.988718914E0,-9.672315717E-1,-5.286218971E-2,1.284937263E-1
3.990730581E0,-9.427312016E-1,-3.049229458E-2,1.316894293E-1
3.992742508E0,-9.192960858E-1,-7.057168987E-3,1.338198930E-1
3.994754695E0,-8.958609700E-1,1.424749196E-2,1.359503716E-1
3.996766987E0,-8.724258542E-1,3.768261895E-2,1.338198930E-1
3.998779487E0,-8.447297812E-1,5.898727849E-2,1.338198930E-1
4.000792143E0,-8.191642165E-1,8.135717362E-2,1.316894293E-1
4.002804956E0,-7.946638465E-1,1.037270650E-1,1.327546686E-1
4.004817872E0,-7.690982223E-1,1.260969639E-1,1.338198930E-1
4.006829435E0,-7.414022088E-1,1.431406885E-1,1.306242049E-1
4.008841206E0,-7.126408815E-1,1.633801162E-1,1.295589656E-1
4.010853185E0,-6.860100627E-1,1.814890802E-1,1.274285018E-1
4.012865372E0,-6.540530920E-1,1.995980442E-1,1.252980381E-1
4.014877716E0,-6.242265701E-1,2.166417688E-1,1.221023351E-1
4.016890060E0,-5.954652429E-1,2.283593267E-1,1.178414002E-1
4.018902560E0,-5.656387210E-1,2.432725877E-1,1.135804728E-1
4.020915164E0,-5.336817503E-1,2.592510879E-1,1.114500016E-1
4.022927872E0,-5.059856772E-1,2.699034214E-1,1.082543060E-1
4.024940633E0,-4.782896340E-1,2.816209793E-1,1.050586104E-1
4.026950945E0,-4.516588151E-1,2.922733128E-1,1.018629074E-1
4.028961466E0,-4.260932207E-1,2.997299433E-1,9.973244369E-2
4.030972247E0,-4.026580751E-1,3.061213493E-1,9.653674066E-2
4.032983393E0,-3.824186623E-1,3.125127256E-1,9.334104508E-2
4.034994851E0,-3.653749228E-1,3.146432042E-1,9.227581322E-2
4.037006466E0,-3.472659588E-1,3.178389072E-1,9.014534205E-2
4.039018497E0,-3.312874734E-1,3.178389072E-1,8.908011019E-2
4.041030893E0,-3.195699155E-1,3.146432042E-1,8.908011019E-2
4.043043653E0,-3.089175820E-1,3.125127256E-1,9.014534205E-2
4.045056674E0,-2.950695455E-1,3.050560951E-1,8.908011019E-2
4.047069747E0,-2.908086181E-1,2.954690158E-1,9.121058136E-2
4.049083028E0,-2.812215090E-1,2.848166823E-1,9.014534205E-2
4.051096466E0,-2.726996541E-1,2.730991244E-1,8.908011019E-2
4.053110008E0,-2.663082480E-1,2.571206093E-1,8.908011019E-2
4.055123601E0,-2.631125450E-1,2.390116602E-1,8.908011019E-2
4.057133237E0,-2.588516176E-1,2.230331600E-1,8.694964647E-2
4.059143133E0,-2.535254657E-1,2.049241960E-1,8.375394344E-2
4.061153341E0,-2.471340597E-1,1.889457107E-1,8.055824786E-2
4.063163966E0,-2.439383566E-1,1.729672104E-1,7.736254483E-2
4.065175008E0,-2.396774292E-1,1.569887102E-1,7.097115368E-2
4.067186362E0,-2.332860380E-1,1.452711523E-1,6.671021879E-2
4.069198237E0,-2.236989290E-1,1.335535944E-1,6.138405204E-2
4.071210581E0,-2.141118348E-1,1.197055578E-1,5.499265343E-2
